"","subject","block","trial","mu1","mu2","choice","reward","RT"
"1",1,1,1,-1,-2,0,0,1655
"2",1,1,2,-1,-2,1,-4,652
"3",1,1,3,-1,-2,0,-1,479
"4",1,1,4,-1,-2,0,-2,839
"5",1,1,5,-1,-2,1,-1,424
"6",1,1,6,-1,-2,0,0,426
"7",1,1,7,-1,-2,0,-3,407
"8",1,1,8,-1,-2,1,-1,686
"9",1,1,9,-1,-2,0,-1,391
"10",1,1,10,-1,-2,0,-1,350
"11",1,2,1,0,-10,0,0,670
"12",1,2,2,0,-10,1,-8,375
"13",1,2,3,0,-10,0,-2,367
"14",1,2,4,0,-10,0,0,415
"15",1,2,5,0,-10,0,0,407
"16",1,2,6,0,-10,0,-1,368
"17",1,2,7,0,-10,1,-11,471
"18",1,2,8,0,-10,0,1,335
"19",1,2,9,0,-10,0,0,351
"20",1,2,10,0,-10,1,-10,367
"21",1,3,1,-5,3,0,-5,530
"22",1,3,2,-5,3,1,2,302
"23",1,3,3,-5,3,1,2,375
"24",1,3,4,-5,3,1,3,360
"25",1,3,5,-5,3,1,2,319
"26",1,3,6,-5,3,1,1,335
"27",1,3,7,-5,3,1,2,385
"28",1,3,8,-5,3,1,4,350
"29",1,3,9,-5,3,1,3,367
"30",1,3,10,-5,3,1,4,391
"31",1,4,1,-2,1,1,1,683
"32",1,4,2,-2,1,1,3,319
"33",1,4,3,-2,1,0,-2,502
"34",1,4,4,-2,1,1,3,543
"35",1,4,5,-2,1,1,1,327
"36",1,4,6,-2,1,1,1,342
"37",1,4,7,-2,1,1,0,342
"38",1,4,8,-2,1,1,1,383
"39",1,4,9,-2,1,1,2,424
"40",1,4,10,-2,1,1,1,390
"41",1,5,1,-2,-11,1,-11,504
"42",1,5,2,-2,-11,0,-2,415
"43",1,5,3,-2,-11,0,-3,596
"44",1,5,4,-2,-11,0,-2,485
"45",1,5,5,-2,-11,0,-2,493
"46",1,5,6,-2,-11,0,-3,399
"47",1,5,7,-2,-11,0,-1,392
"48",1,5,8,-2,-11,0,-6,424
"49",1,5,9,-2,-11,1,-10,503
"50",1,5,10,-2,-11,0,-3,351
"51",1,6,1,-5,-9,0,-6,656
"52",1,6,2,-5,-9,1,-9,365
"53",1,6,3,-5,-9,0,-5,519
"54",1,6,4,-5,-9,0,-5,342
"55",1,6,5,-5,-9,0,-5,319
"56",1,6,6,-5,-9,0,-4,423
"57",1,6,7,-5,-9,0,-5,399
"58",1,6,8,-5,-9,0,-6,405
"59",1,6,9,-5,-9,0,-4,359
"60",1,6,10,-5,-9,0,-3,375
"61",1,7,1,1,0,0,1,774
"62",1,7,2,1,0,0,-1,366
"63",1,7,3,1,0,1,0,340
"64",1,7,4,1,0,1,0,335
"65",1,7,5,1,0,1,-1,439
"66",1,7,6,1,0,0,-1,368
"67",1,7,7,1,0,0,3,463
"68",1,7,8,1,0,0,0,343
"69",1,7,9,1,0,0,2,367
"70",1,7,10,1,0,0,-1,359
"71",1,8,1,1,-7,0,1,464
"72",1,8,2,1,-7,0,1,396
"73",1,8,3,1,-7,0,-1,334
"74",1,8,4,1,-7,0,4,351
"75",1,8,5,1,-7,0,2,383
"76",1,8,6,1,-7,0,-1,360
"77",1,8,7,1,-7,0,0,343
"78",1,8,8,1,-7,0,0,455
"79",1,8,9,1,-7,0,2,415
"80",1,8,10,1,-7,0,1,415
"81",1,9,1,9,-4,0,8,474
"82",1,9,2,9,-4,0,8,407
"83",1,9,3,9,-4,0,8,510
"84",1,9,4,9,-4,1,-4,320
"85",1,9,5,9,-4,0,7,351
"86",1,9,6,9,-4,0,11,352
"87",1,9,7,9,-4,0,6,376
"88",1,9,8,9,-4,0,8,535
"89",1,9,9,9,-4,0,9,423
"90",1,9,10,9,-4,0,10,615
"91",1,10,1,-8,-8,0,-9,961
"92",1,10,2,-8,-8,1,-10,423
"93",1,10,3,-8,-8,0,-8,382
"94",1,10,4,-8,-8,0,-9,318
"95",1,10,5,-8,-8,0,-9,367
"96",1,10,6,-8,-8,0,-8,511
"97",1,10,7,-8,-8,0,-9,383
"98",1,10,8,-8,-8,0,-9,359
"99",1,10,9,-8,-8,0,-9,342
"100",1,10,10,-8,-8,0,-7,366
"101",1,11,1,11,16,0,10,554
"102",1,11,2,11,16,0,10,397
"103",1,11,3,11,16,0,12,359
"104",1,11,4,11,16,0,11,377
"105",1,11,5,11,16,1,17,359
"106",1,11,6,11,16,1,16,406
"107",1,11,7,11,16,1,18,310
"108",1,11,8,11,16,1,16,367
"109",1,11,9,11,16,1,17,352
"110",1,11,10,11,16,1,16,336
"111",1,12,1,-11,4,1,5,734
"112",1,12,2,-11,4,0,-12,343
"113",1,12,3,-11,4,1,4,343
"114",1,12,4,-11,4,1,4,383
"115",1,12,5,-11,4,1,3,375
"116",1,12,6,-11,4,1,5,358
"117",1,12,7,-11,4,1,4,359
"118",1,12,8,-11,4,1,5,351
"119",1,12,9,-11,4,1,4,352
"120",1,12,10,-11,4,1,3,355
"121",1,13,1,-3,4,1,5,544
"122",1,13,2,-3,4,0,-2,342
"123",1,13,3,-3,4,1,3,327
"124",1,13,4,-3,4,1,5,351
"125",1,13,5,-3,4,1,2,383
"126",1,13,6,-3,4,1,5,383
"127",1,13,7,-3,4,1,4,406
"128",1,13,8,-3,4,1,3,335
"129",1,13,9,-3,4,1,4,367
"130",1,13,10,-3,4,1,4,367
"131",1,14,1,-6,-6,1,-5,543
"132",1,14,2,-6,-6,0,-6,344
"133",1,14,3,-6,-6,1,-5,375
"134",1,14,4,-6,-6,0,-7,356
"135",1,14,5,-6,-6,0,-6,374
"136",1,14,6,-6,-6,0,-4,374
"137",1,14,7,-6,-6,1,-7,503
"138",1,14,8,-6,-6,0,-6,431
"139",1,14,9,-6,-6,0,-7,383
"140",1,14,10,-6,-6,0,-7,367
"141",1,15,1,-16,-9,0,-19,743
"142",1,15,2,-16,-9,1,-9,327
"143",1,15,3,-16,-9,1,-8,325
"144",1,15,4,-16,-9,1,-8,334
"145",1,15,5,-16,-9,1,-8,319
"146",1,15,6,-16,-9,1,-10,488
"147",1,15,7,-16,-9,0,-16,688
"148",1,15,8,-16,-9,1,-9,335
"149",1,15,9,-16,-9,1,-9,358
"150",1,15,10,-16,-9,1,-8,904
"151",1,16,1,-7,8,1,9,454
"152",1,16,2,-7,8,0,-8,390
"153",1,16,3,-7,8,1,8,319
"154",1,16,4,-7,8,1,10,351
"155",1,16,5,-7,8,1,9,359
"156",1,16,6,-7,8,1,9,320
"157",1,16,7,-7,8,1,9,369
"158",1,16,8,-7,8,1,8,382
"159",1,16,9,-7,8,1,7,383
"160",1,16,10,-7,8,1,7,423
"161",1,17,1,15,2,1,2,520
"162",1,17,2,15,2,0,16,334
"163",1,17,3,15,2,0,15,343
"164",1,17,4,15,2,0,15,335
"165",1,17,5,15,2,0,16,344
"166",1,17,6,15,2,0,16,335
"167",1,17,7,15,2,0,14,352
"168",1,17,8,15,2,0,15,383
"169",1,17,9,15,2,0,15,343
"170",1,17,10,15,2,0,14,327
"171",1,18,1,-6,-4,1,-3,491
"172",1,18,2,-6,-4,0,-5,512
"173",1,18,3,-6,-4,0,-6,399
"174",1,18,4,-6,-4,1,-6,327
"175",1,18,5,-6,-4,0,-7,406
"176",1,18,6,-6,-4,1,-2,328
"177",1,18,7,-6,-4,0,-6,343
"178",1,18,8,-6,-4,1,-4,344
"179",1,18,9,-6,-4,0,-6,377
"180",1,18,10,-6,-4,1,-2,327
"181",1,19,1,2,18,1,18,484
"182",1,19,2,2,18,0,1,359
"183",1,19,3,2,18,1,18,343
"184",1,19,4,2,18,1,18,311
"185",1,19,5,2,18,1,17,343
"186",1,19,6,2,18,1,18,351
"187",1,19,7,2,18,1,18,359
"188",1,19,8,2,18,1,18,351
"189",1,19,9,2,18,1,18,367
"190",1,19,10,2,18,1,19,360
"191",1,20,1,3,3,1,4,553
"192",1,20,2,3,3,0,1,487
"193",1,20,3,3,3,1,3,375
"194",1,20,4,3,3,1,3,343
"195",1,20,5,3,3,1,5,350
"196",1,20,6,3,3,1,4,327
"197",1,20,7,3,3,1,2,335
"198",1,20,8,3,3,1,4,439
"199",1,20,9,3,3,1,3,375
"200",1,20,10,3,3,1,4,357
"201",2,1,1,-2,-7,0,-3,1309
"202",2,1,2,-2,-7,1,-8,698
"203",2,1,3,-2,-7,0,-3,606
"204",2,1,4,-2,-7,1,-7,507
"205",2,1,5,-2,-7,0,-2,492
"206",2,1,6,-2,-7,0,-2,469
"207",2,1,7,-2,-7,0,-1,375
"208",2,1,8,-2,-7,0,-3,358
"209",2,1,9,-2,-7,1,-7,367
"210",2,1,10,-2,-7,0,-2,329
"211",2,2,1,8,8,1,8,901
"212",2,2,2,8,8,0,7,520
"213",2,2,3,8,8,1,9,390
"214",2,2,4,8,8,1,8,496
"215",2,2,5,8,8,1,6,383
"216",2,2,6,8,8,1,8,369
"217",2,2,7,8,8,1,9,383
"218",2,2,8,8,8,1,7,376
"219",2,2,9,8,8,1,9,557
"220",2,2,10,8,8,1,8,366
"221",2,3,1,11,-5,1,-5,1284
"222",2,3,2,11,-5,0,11,438
"223",2,3,3,11,-5,0,11,445
"224",2,3,4,11,-5,0,11,535
"225",2,3,5,11,-5,0,11,689
"226",2,3,6,11,-5,0,11,566
"227",2,3,7,11,-5,0,13,538
"228",2,3,8,11,-5,0,13,543
"229",2,3,9,11,-5,0,10,509
"230",2,3,10,11,-5,0,11,600
"231",2,4,1,-5,6,1,6,1517
"232",2,4,2,-5,6,0,-5,539
"233",2,4,3,-5,6,1,8,412
"234",2,4,4,-5,6,1,6,514
"235",2,4,5,-5,6,1,6,466
"236",2,4,6,-5,6,1,6,448
"237",2,4,7,-5,6,1,7,430
"238",2,4,8,-5,6,1,6,454
"239",2,4,9,-5,6,1,5,412
"240",2,4,10,-5,6,1,4,412
"241",2,5,1,-3,16,1,15,850
"242",2,5,2,-3,16,0,-2,505
"243",2,5,3,-3,16,1,15,349
"244",2,5,4,-3,16,1,15,399
"245",2,5,5,-3,16,1,16,342
"246",2,5,6,-3,16,1,17,335
"247",2,5,7,-3,16,1,17,484
"248",2,5,8,-3,16,1,17,595
"249",2,5,9,-3,16,1,16,818
"250",2,5,10,-3,16,1,16,1322
"251",2,6,1,-15,6,1,6,2294
"252",2,6,2,-15,6,0,-15,504
"253",2,6,3,-15,6,1,6,343
"254",2,6,4,-15,6,1,8,313
"255",2,6,5,-15,6,1,6,340
"256",2,6,6,-15,6,1,6,404
"257",2,6,7,-15,6,1,5,353
"258",2,6,8,-15,6,1,7,350
"259",2,6,9,-15,6,1,6,377
"260",2,6,10,-15,6,1,7,349
"261",2,7,1,-1,8,1,7,625
"262",2,7,2,-1,8,0,-2,715
"263",2,7,3,-1,8,1,8,415
"264",2,7,4,-1,8,1,8,336
"265",2,7,5,-1,8,1,9,319
"266",2,7,6,-1,8,1,8,304
"267",2,7,7,-1,8,1,7,451
"268",2,7,8,-1,8,1,10,341
"269",2,7,9,-1,8,1,8,364
"270",2,7,10,-1,8,1,9,404
"271",2,8,1,5,-14,1,-14,1108
"272",2,8,2,5,-14,0,4,382
"273",2,8,3,5,-14,0,4,350
"274",2,8,4,5,-14,0,4,304
"275",2,8,5,5,-14,0,5,365
"276",2,8,6,5,-14,0,5,405
"277",2,8,7,5,-14,0,4,439
"278",2,8,8,5,-14,0,7,647
"279",2,8,9,5,-14,0,6,1016
"280",2,8,10,5,-14,0,5,498
"281",2,9,1,15,0,0,14,562
"282",2,9,2,15,0,0,13,391
"283",2,9,3,15,0,0,14,488
"284",2,9,4,15,0,0,14,306
"285",2,9,5,15,0,0,15,359
"286",2,9,6,15,0,0,17,567
"287",2,9,7,15,0,0,16,491
"288",2,9,8,15,0,0,14,388
"289",2,9,9,15,0,0,16,427
"290",2,9,10,15,0,0,16,799
"291",2,10,1,12,6,1,6,1019
"292",2,10,2,12,6,0,14,356
"293",2,10,3,12,6,0,13,356
"294",2,10,4,12,6,0,10,429
"295",2,10,5,12,6,0,12,332
"296",2,10,6,12,6,0,12,312
"297",2,10,7,12,6,0,13,338
"298",2,10,8,12,6,0,13,398
"299",2,10,9,12,6,0,11,412
"300",2,10,10,12,6,0,13,426
"301",2,11,1,6,5,0,6,624
"302",2,11,2,6,5,1,4,351
"303",2,11,3,6,5,0,6,413
"304",2,11,4,6,5,1,5,349
"305",2,11,5,6,5,1,6,374
"306",2,11,6,6,5,1,5,335
"307",2,11,7,6,5,0,5,333
"308",2,11,8,6,5,0,7,423
"309",2,11,9,6,5,0,6,358
"310",2,11,10,6,5,0,6,350
"311",2,12,1,-7,-4,0,-7,852
"312",2,12,2,-7,-4,1,-3,382
"313",2,12,3,-7,-4,1,-3,367
"314",2,12,4,-7,-4,0,-6,438
"315",2,12,5,-7,-4,1,-4,377
"316",2,12,6,-7,-4,1,-6,399
"317",2,12,7,-7,-4,0,-5,398
"318",2,12,8,-7,-4,1,-3,344
"319",2,12,9,-7,-4,1,-4,374
"320",2,12,10,-7,-4,1,-4,405
"321",2,13,1,12,2,1,0,586
"322",2,13,2,12,2,0,13,434
"323",2,13,3,12,2,0,13,423
"324",2,13,4,12,2,0,11,382
"325",2,13,5,12,2,0,12,353
"326",2,13,6,12,2,0,12,383
"327",2,13,7,12,2,0,11,390
"328",2,13,8,12,2,0,11,517
"329",2,13,9,12,2,0,11,539
"330",2,13,10,12,2,0,14,362
"331",2,14,1,6,2,0,7,6542
"332",2,14,2,6,2,1,3,358
"333",2,14,3,6,2,0,5,280
"334",2,14,4,6,2,1,3,326
"335",2,14,5,6,2,0,6,337
"336",2,14,6,6,2,0,7,361
"337",2,14,7,6,2,0,4,836
"338",2,14,8,6,2,0,4,392
"339",2,14,9,6,2,0,8,2157
"340",2,14,10,6,2,0,5,387
"341",2,15,1,6,-9,1,-10,1880
"342",2,15,2,6,-9,0,5,396
"343",2,15,3,6,-9,0,7,319
"344",2,15,4,6,-9,0,6,388
"345",2,15,5,6,-9,0,4,326
"346",2,15,6,6,-9,0,7,325
"347",2,15,7,6,-9,0,6,367
"348",2,15,8,6,-9,0,6,383
"349",2,15,9,6,-9,0,7,366
"350",2,15,10,6,-9,0,6,406
"351",2,16,1,5,-3,0,5,704
"352",2,16,2,5,-3,1,-4,364
"353",2,16,3,5,-3,0,7,1951
"354",2,16,4,5,-3,0,6,367
"355",2,16,5,5,-3,0,6,352
"356",2,16,6,5,-3,0,5,336
"357",2,16,7,5,-3,0,8,374
"358",2,16,8,5,-3,0,4,413
"359",2,16,9,5,-3,0,5,318
"360",2,16,10,5,-3,0,7,356
"361",2,17,1,-2,11,1,10,962
"362",2,17,2,-2,11,0,-3,459
"363",2,17,3,-2,11,1,10,320
"364",2,17,4,-2,11,1,11,270
"365",2,17,5,-2,11,1,12,326
"366",2,17,6,-2,11,1,10,287
"367",2,17,7,-2,11,1,10,340
"368",2,17,8,-2,11,1,11,350
"369",2,17,9,-2,11,1,9,282
"370",2,17,10,-2,11,1,11,358
"371",2,18,1,-1,-9,1,-9,671
"372",2,18,2,-1,-9,0,-2,374
"373",2,18,3,-1,-9,0,0,397
"374",2,18,4,-1,-9,0,-2,335
"375",2,18,5,-1,-9,0,-2,376
"376",2,18,6,-1,-9,0,0,348
"377",2,18,7,-1,-9,0,-1,349
"378",2,18,8,-1,-9,1,-8,385
"379",2,18,9,-1,-9,0,-1,356
"380",2,18,10,-1,-9,0,1,374
"381",2,19,1,18,-6,0,19,2858
"382",2,19,2,18,-6,0,19,366
"383",2,19,3,18,-6,0,18,337
"384",2,19,4,18,-6,0,15,323
"385",2,19,5,18,-6,0,17,416
"386",2,19,6,18,-6,0,18,380
"387",2,19,7,18,-6,0,17,385
"388",2,19,8,18,-6,0,18,384
"389",2,19,9,18,-6,0,18,352
"390",2,19,10,18,-6,0,19,382
"391",2,20,1,15,-3,0,16,658
"392",2,20,2,15,-3,0,15,516
"393",2,20,3,15,-3,0,15,312
"394",2,20,4,15,-3,0,15,318
"395",2,20,5,15,-3,0,15,328
"396",2,20,6,15,-3,0,15,329
"397",2,20,7,15,-3,0,14,327
"398",2,20,8,15,-3,0,17,343
"399",2,20,9,15,-3,0,16,351
"400",2,20,10,15,-3,0,15,337
"401",3,1,1,10,9,0,9,1559
"402",3,1,2,10,9,1,10,816
"403",3,1,3,10,9,1,9,861
"404",3,1,4,10,9,0,9,578
"405",3,1,5,10,9,1,10,473
"406",3,1,6,10,9,1,9,444
"407",3,1,7,10,9,0,8,438
"408",3,1,8,10,9,1,10,357
"409",3,1,9,10,9,0,9,383
"410",3,1,10,10,9,1,10,387
"411",3,2,1,-4,6,0,-5,861
"412",3,2,2,-4,6,1,4,372
"413",3,2,3,-4,6,0,-5,516
"414",3,2,4,-4,6,1,8,323
"415",3,2,5,-4,6,1,5,336
"416",3,2,6,-4,6,0,-6,333
"417",3,2,7,-4,6,1,8,313
"418",3,2,8,-4,6,1,4,333
"419",3,2,9,-4,6,1,6,341
"420",3,2,10,-4,6,1,5,316
"421",3,3,1,4,-1,1,-2,468
"422",3,3,2,4,-1,0,4,343
"423",3,3,3,4,-1,0,5,259
"424",3,3,4,4,-1,0,3,292
"425",3,3,5,4,-1,0,3,322
"426",3,3,6,4,-1,0,3,318
"427",3,3,7,4,-1,0,5,336
"428",3,3,8,4,-1,0,4,363
"429",3,3,9,4,-1,0,5,415
"430",3,3,10,4,-1,0,4,355
"431",3,4,1,-13,8,0,-13,422
"432",3,4,2,-13,8,1,8,384
"433",3,4,3,-13,8,1,8,464
"434",3,4,4,-13,8,1,8,254
"435",3,4,5,-13,8,1,7,209
"436",3,4,6,-13,8,1,8,229
"437",3,4,7,-13,8,1,9,226
"438",3,4,8,-13,8,1,7,283
"439",3,4,9,-13,8,1,6,235
"440",3,4,10,-13,8,1,9,418
"441",3,5,1,-2,6,0,-2,370
"442",3,5,2,-2,6,1,4,258
"443",3,5,3,-2,6,1,7,233
"444",3,5,4,-2,6,1,6,241
"445",3,5,5,-2,6,1,7,239
"446",3,5,6,-2,6,1,7,277
"447",3,5,7,-2,6,1,7,379
"448",3,5,8,-2,6,1,6,294
"449",3,5,9,-2,6,1,6,257
"450",3,5,10,-2,6,1,5,316
"451",3,6,1,-2,-2,1,-1,351
"452",3,6,2,-2,-2,0,-2,265
"453",3,6,3,-2,-2,1,-3,260
"454",3,6,4,-2,-2,0,0,388
"455",3,6,5,-2,-2,0,-2,283
"456",3,6,6,-2,-2,1,-5,316
"457",3,6,7,-2,-2,0,-4,297
"458",3,6,8,-2,-2,1,-3,319
"459",3,6,9,-2,-2,0,-1,321
"460",3,6,10,-2,-2,1,-1,358
"461",3,7,1,1,8,0,0,351
"462",3,7,2,1,8,1,9,263
"463",3,7,3,1,8,1,8,312
"464",3,7,4,1,8,1,7,334
"465",3,7,5,1,8,1,8,250
"466",3,7,6,1,8,1,9,255
"467",3,7,7,1,8,1,6,277
"468",3,7,8,1,8,1,9,226
"469",3,7,9,1,8,1,9,244
"470",3,7,10,1,8,1,7,277
"471",3,8,1,-2,-7,1,-6,556
"472",3,8,2,-2,-7,0,-2,287
"473",3,8,3,-2,-7,0,-4,299
"474",3,8,4,-2,-7,1,-6,290
"475",3,8,5,-2,-7,0,-1,285
"476",3,8,6,-2,-7,1,-6,291
"477",3,8,7,-2,-7,0,-3,274
"478",3,8,8,-2,-7,0,-2,269
"479",3,8,9,-2,-7,0,-3,235
"480",3,8,10,-2,-7,0,-2,275
"481",3,9,1,-6,2,1,3,589
"482",3,9,2,-6,2,0,-6,300
"483",3,9,3,-6,2,1,3,266
"484",3,9,4,-6,2,1,1,225
"485",3,9,5,-6,2,1,2,223
"486",3,9,6,-6,2,1,2,226
"487",3,9,7,-6,2,1,3,230
"488",3,9,8,-6,2,1,4,218
"489",3,9,9,-6,2,1,3,266
"490",3,9,10,-6,2,1,3,266
"491",3,10,1,6,-1,0,7,408
"492",3,10,2,6,-1,1,0,263
"493",3,10,3,6,-1,0,7,285
"494",3,10,4,6,-1,0,6,222
"495",3,10,5,6,-1,0,6,250
"496",3,10,6,6,-1,0,7,318
"497",3,10,7,6,-1,0,5,299
"498",3,10,8,6,-1,0,8,251
"499",3,10,9,6,-1,0,5,262
"500",3,10,10,6,-1,0,5,292
"501",3,11,1,-4,5,1,6,398
"502",3,11,2,-4,5,0,-4,282
"503",3,11,3,-4,5,1,5,290
"504",3,11,4,-4,5,1,4,207
"505",3,11,5,-4,5,1,5,223
"506",3,11,6,-4,5,1,5,224
"507",3,11,7,-4,5,1,6,204
"508",3,11,8,-4,5,1,5,272
"509",3,11,9,-4,5,1,7,209
"510",3,11,10,-4,5,1,5,240
"511",3,12,1,2,-10,1,-8,387
"512",3,12,2,2,-10,0,2,266
"513",3,12,3,2,-10,0,1,245
"514",3,12,4,2,-10,0,2,251
"515",3,12,5,2,-10,0,1,262
"516",3,12,6,2,-10,0,4,228
"517",3,12,7,2,-10,0,2,274
"518",3,12,8,2,-10,0,-1,288
"519",3,12,9,2,-10,0,4,300
"520",3,12,10,2,-10,0,1,568
"521",3,13,1,0,7,0,-1,463
"522",3,13,2,0,7,1,7,261
"523",3,13,3,0,7,1,9,250
"524",3,13,4,0,7,1,8,223
"525",3,13,5,0,7,1,7,226
"526",3,13,6,0,7,1,6,229
"527",3,13,7,0,7,1,7,271
"528",3,13,8,0,7,1,7,284
"529",3,13,9,0,7,1,6,247
"530",3,13,10,0,7,1,8,250
"531",3,14,1,3,0,1,1,507
"532",3,14,2,3,0,0,3,279
"533",3,14,3,3,0,0,4,243
"534",3,14,4,3,0,0,3,201
"535",3,14,5,3,0,0,4,268
"536",3,14,6,3,0,0,3,237
"537",3,14,7,3,0,0,3,236
"538",3,14,8,3,0,0,3,242
"539",3,14,9,3,0,0,4,251
"540",3,14,10,3,0,0,4,248
"541",3,15,1,5,3,1,3,365
"542",3,15,2,5,3,0,6,253
"543",3,15,3,5,3,0,6,306
"544",3,15,4,5,3,0,6,248
"545",3,15,5,5,3,0,4,225
"546",3,15,6,5,3,0,4,258
"547",3,15,7,5,3,0,6,237
"548",3,15,8,5,3,0,5,266
"549",3,15,9,5,3,0,7,273
"550",3,15,10,5,3,0,4,360
"551",3,16,1,4,4,1,5,615
"552",3,16,2,4,4,0,3,237
"553",3,16,3,4,4,1,5,281
"554",3,16,4,4,4,1,3,203
"555",3,16,5,4,4,1,4,239
"556",3,16,6,4,4,1,5,216
"557",3,16,7,4,4,1,3,246
"558",3,16,8,4,4,1,3,266
"559",3,16,9,4,4,1,4,245
"560",3,16,10,4,4,1,5,275
"561",3,17,1,6,-3,1,-4,417
"562",3,17,2,6,-3,0,5,255
"563",3,17,3,6,-3,0,6,264
"564",3,17,4,6,-3,0,6,245
"565",3,17,5,6,-3,0,7,255
"566",3,17,6,6,-3,0,5,275
"567",3,17,7,6,-3,0,5,264
"568",3,17,8,6,-3,0,7,287
"569",3,17,9,6,-3,0,5,261
"570",3,17,10,6,-3,0,5,241
"571",3,18,1,-8,-3,0,-9,384
"572",3,18,2,-8,-3,1,0,233
"573",3,18,3,-8,-3,1,-2,225
"574",3,18,4,-8,-3,1,-4,214
"575",3,18,5,-8,-3,1,-4,190
"576",3,18,6,-8,-3,0,-8,256
"577",3,18,7,-8,-3,1,-5,234
"578",3,18,8,-8,-3,1,-5,209
"579",3,18,9,-8,-3,1,-3,220
"580",3,18,10,-8,-3,1,-5,244
"581",3,19,1,4,-4,1,-3,573
"582",3,19,2,4,-4,0,4,231
"583",3,19,3,4,-4,0,5,238
"584",3,19,4,4,-4,0,4,255
"585",3,19,5,4,-4,0,6,267
"586",3,19,6,4,-4,0,4,235
"587",3,19,7,4,-4,0,2,226
"588",3,19,8,4,-4,0,3,261
"589",3,19,9,4,-4,0,3,256
"590",3,19,10,4,-4,0,5,260
"591",3,20,1,5,-6,1,-6,380
"592",3,20,2,5,-6,0,5,254
"593",3,20,3,5,-6,0,4,230
"594",3,20,4,5,-6,0,4,224
"595",3,20,5,5,-6,0,5,244
"596",3,20,6,5,-6,0,4,233
"597",3,20,7,5,-6,0,6,254
"598",3,20,8,5,-6,0,5,245
"599",3,20,9,5,-6,0,7,252
"600",3,20,10,5,-6,0,4,237
"601",4,1,1,3,4,0,4,1135
"602",4,1,2,3,4,0,2,742
"603",4,1,3,3,4,1,4,609
"604",4,1,4,3,4,1,3,412
"605",4,1,5,3,4,1,3,541
"606",4,1,6,3,4,1,5,431
"607",4,1,7,3,4,1,3,482
"608",4,1,8,3,4,0,3,393
"609",4,1,9,3,4,1,4,391
"610",4,1,10,3,4,1,3,391
"611",4,2,1,-2,-1,0,-2,611
"612",4,2,2,-2,-1,1,-1,350
"613",4,2,3,-2,-1,1,-2,544
"614",4,2,4,-2,-1,1,0,403
"615",4,2,5,-2,-1,1,-1,550
"616",4,2,6,-2,-1,0,-3,1066
"617",4,2,7,-2,-1,0,-1,367
"618",4,2,8,-2,-1,0,-1,485
"619",4,2,9,-2,-1,0,-1,520
"620",4,2,10,-2,-1,1,-1,760
"621",4,3,1,7,8,0,8,1119
"622",4,3,2,7,8,0,5,377
"623",4,3,3,7,8,0,8,478
"624",4,3,4,7,8,0,8,446
"625",4,3,5,7,8,0,6,470
"626",4,3,6,7,8,1,8,607
"627",4,3,7,7,8,1,8,697
"628",4,3,8,7,8,1,8,447
"629",4,3,9,7,8,1,7,415
"630",4,3,10,7,8,1,8,399
"631",4,4,1,-6,5,1,4,479
"632",4,4,2,-6,5,0,-6,407
"633",4,4,3,-6,5,1,7,489
"634",4,4,4,-6,5,1,5,435
"635",4,4,5,-6,5,1,5,788
"636",4,4,6,-6,5,1,4,385
"637",4,4,7,-6,5,1,4,535
"638",4,4,8,-6,5,1,4,444
"639",4,4,9,-6,5,1,6,412
"640",4,4,10,-6,5,1,5,423
"641",4,5,1,-5,-4,0,-4,1313
"642",4,5,2,-5,-4,1,-4,356
"643",4,5,3,-5,-4,0,-5,650
"644",4,5,4,-5,-4,1,-4,1082
"645",4,5,5,-5,-4,1,-2,523
"646",4,5,6,-5,-4,1,-4,389
"647",4,5,7,-5,-4,1,-4,1051
"648",4,5,8,-5,-4,1,-6,352
"649",4,5,9,-5,-4,1,-4,612
"650",4,5,10,-5,-4,1,-4,348
"651",4,6,1,-9,15,0,-9,913
"652",4,6,2,-9,15,1,14,379
"653",4,6,3,-9,15,1,16,384
"654",4,6,4,-9,15,1,16,391
"655",4,6,5,-9,15,1,14,420
"656",4,6,6,-9,15,1,15,545
"657",4,6,7,-9,15,1,14,376
"658",4,6,8,-9,15,1,14,349
"659",4,6,9,-9,15,1,16,389
"660",4,6,10,-9,15,1,16,387
"661",4,7,1,6,16,1,14,600
"662",4,7,2,6,16,1,15,354
"663",4,7,3,6,16,1,16,355
"664",4,7,4,6,16,1,16,380
"665",4,7,5,6,16,1,17,367
"666",4,7,6,6,16,1,16,490
"667",4,7,7,6,16,1,16,384
"668",4,7,8,6,16,1,15,391
"669",4,7,9,6,16,1,18,370
"670",4,7,10,6,16,1,15,374
"671",4,8,1,-3,-4,0,-4,367
"672",4,8,2,-3,-4,1,-3,542
"673",4,8,3,-3,-4,1,-4,529
"674",4,8,4,-3,-4,1,-2,474
"675",4,8,5,-3,-4,1,-4,393
"676",4,8,6,-3,-4,0,-2,519
"677",4,8,7,-3,-4,0,-3,998
"678",4,8,8,-3,-4,0,-4,411
"679",4,8,9,-3,-4,1,-3,387
"680",4,8,10,-3,-4,1,-5,435
"681",4,9,1,9,-5,0,9,1241
"682",4,9,2,9,-5,0,8,1121
"683",4,9,3,9,-5,0,10,332
"684",4,9,4,9,-5,0,8,404
"685",4,9,5,9,-5,0,9,387
"686",4,9,6,9,-5,0,10,366
"687",4,9,7,9,-5,0,9,479
"688",4,9,8,9,-5,0,7,307
"689",4,9,9,9,-5,0,10,355
"690",4,9,10,9,-5,0,9,337
"691",4,10,1,9,-4,1,-3,612
"692",4,10,2,9,-4,0,8,371
"693",4,10,3,9,-4,0,10,1073
"694",4,10,4,9,-4,0,9,674
"695",4,10,5,9,-4,0,9,462
"696",4,10,6,9,-4,0,10,485
"697",4,10,7,9,-4,0,8,550
"698",4,10,8,9,-4,0,10,372
"699",4,10,9,9,-4,0,9,382
"700",4,10,10,9,-4,0,10,619
"701",4,11,1,2,6,0,2,486
"702",4,11,2,2,6,1,4,353
"703",4,11,3,2,6,1,7,343
"704",4,11,4,2,6,1,6,414
"705",4,11,5,2,6,1,6,360
"706",4,11,6,2,6,1,5,400
"707",4,11,7,2,6,1,6,451
"708",4,11,8,2,6,1,7,412
"709",4,11,9,2,6,1,6,388
"710",4,11,10,2,6,1,5,397
"711",4,12,1,13,-8,0,12,484
"712",4,12,2,13,-8,0,12,327
"713",4,12,3,13,-8,0,13,1013
"714",4,12,4,13,-8,0,14,296
"715",4,12,5,13,-8,0,14,883
"716",4,12,6,13,-8,0,13,596
"717",4,12,7,13,-8,0,13,443
"718",4,12,8,13,-8,0,13,437
"719",4,12,9,13,-8,0,12,824
"720",4,12,10,13,-8,0,13,364
"721",4,13,1,-4,2,0,-6,565
"722",4,13,2,-4,2,1,2,15
"723",4,13,3,-4,2,1,2,289
"724",4,13,4,-4,2,1,0,349
"725",4,13,5,-4,2,1,2,378
"726",4,13,6,-4,2,0,-4,15
"727",4,13,7,-4,2,1,3,432
"728",4,13,8,-4,2,1,1,761
"729",4,13,9,-4,2,1,0,390
"730",4,13,10,-4,2,1,2,356
"731",4,14,1,-1,17,1,18,579
"732",4,14,2,-1,17,1,16,304
"733",4,14,3,-1,17,1,17,395
"734",4,14,4,-1,17,1,17,495
"735",4,14,5,-1,17,1,17,387
"736",4,14,6,-1,17,1,17,1382
"737",4,14,7,-1,17,1,16,623
"738",4,14,8,-1,17,1,19,343
"739",4,14,9,-1,17,1,19,356
"740",4,14,10,-1,17,1,18,9
"741",4,15,1,0,-4,1,-3,521
"742",4,15,2,0,-4,0,-2,333
"743",4,15,3,0,-4,0,-1,856
"744",4,15,4,0,-4,0,-1,347
"745",4,15,5,0,-4,0,0,325
"746",4,15,6,0,-4,0,-1,334
"747",4,15,7,0,-4,0,0,1055
"748",4,15,8,0,-4,0,1,330
"749",4,15,9,0,-4,0,-1,350
"750",4,15,10,0,-4,1,-5,375
"751",4,16,1,24,10,0,23,667
"752",4,16,2,24,10,0,25,346
"753",4,16,3,24,10,0,24,355
"754",4,16,4,24,10,0,23,1130
"755",4,16,5,24,10,0,24,311
"756",4,16,6,24,10,0,25,369
"757",4,16,7,24,10,0,24,376
"758",4,16,8,24,10,0,23,374
"759",4,16,9,24,10,0,23,404
"760",4,16,10,24,10,0,23,359
"761",4,17,1,2,19,0,3,523
"762",4,17,2,2,19,1,20,351
"763",4,17,3,2,19,1,21,719
"764",4,17,4,2,19,1,19,364
"765",4,17,5,2,19,1,17,1057
"766",4,17,6,2,19,1,20,359
"767",4,17,7,2,19,1,21,360
"768",4,17,8,2,19,1,19,364
"769",4,17,9,2,19,1,19,407
"770",4,17,10,2,19,1,20,386
"771",4,18,1,-6,-16,1,-15,839
"772",4,18,2,-6,-16,0,-6,352
"773",4,18,3,-6,-16,0,-6,369
"774",4,18,4,-6,-16,0,-5,328
"775",4,18,5,-6,-16,0,-6,1065
"776",4,18,6,-6,-16,0,-7,319
"777",4,18,7,-6,-16,0,-6,335
"778",4,18,8,-6,-16,0,-6,361
"779",4,18,9,-6,-16,0,-6,596
"780",4,18,10,-6,-16,0,-7,406
"781",4,19,1,6,-16,0,5,692
"782",4,19,2,6,-16,1,-18,1247
"783",4,19,3,6,-16,0,5,2499
"784",4,19,4,6,-16,0,7,589
"785",4,19,5,6,-16,0,7,416
"786",4,19,6,6,-16,0,6,353
"787",4,19,7,6,-16,0,7,350
"788",4,19,8,6,-16,0,6,362
"789",4,19,9,6,-16,0,6,350
"790",4,19,10,6,-16,0,5,336
"791",4,20,1,21,-3,0,22,552
"792",4,20,2,21,-3,0,21,868
"793",4,20,3,21,-3,0,23,375
"794",4,20,4,21,-3,0,21,848
"795",4,20,5,21,-3,0,19,420
"796",4,20,6,21,-3,0,22,375
"797",4,20,7,21,-3,0,21,387
"798",4,20,8,21,-3,0,19,388
"799",4,20,9,21,-3,0,21,336
"800",4,20,10,21,-3,0,21,346
"801",5,1,1,12,2,0,12,2600
"802",5,1,2,12,2,0,11,601
"803",5,1,3,12,2,0,13,509
"804",5,1,4,12,2,0,12,562
"805",5,1,5,12,2,0,12,605
"806",5,1,6,12,2,0,12,648
"807",5,1,7,12,2,0,11,510
"808",5,1,8,12,2,1,2,480
"809",5,1,9,12,2,0,13,439
"810",5,1,10,12,2,0,13,549
"811",5,2,1,4,14,1,14,943
"812",5,2,2,4,14,1,14,402
"813",5,2,3,4,14,1,14,435
"814",5,2,4,4,14,0,4,749
"815",5,2,5,4,14,1,14,342
"816",5,2,6,4,14,1,14,434
"817",5,2,7,4,14,1,14,449
"818",5,2,8,4,14,1,15,543
"819",5,2,9,4,14,1,14,677
"820",5,2,10,4,14,1,14,485
"821",5,3,1,-20,-7,1,-5,616
"822",5,3,2,-20,-7,0,-18,1311
"823",5,3,3,-20,-7,1,-7,540
"824",5,3,4,-20,-7,1,-7,359
"825",5,3,5,-20,-7,1,-6,408
"826",5,3,6,-20,-7,1,-6,420
"827",5,3,7,-20,-7,0,-19,377
"828",5,3,8,-20,-7,1,-7,494
"829",5,3,9,-20,-7,1,-8,443
"830",5,3,10,-20,-7,1,-6,456
"831",5,4,1,-15,-4,1,-4,600
"832",5,4,2,-15,-4,0,-13,353
"833",5,4,3,-15,-4,1,-5,512
"834",5,4,4,-15,-4,1,-4,408
"835",5,4,5,-15,-4,1,-6,409
"836",5,4,6,-15,-4,1,-3,399
"837",5,4,7,-15,-4,1,-5,496
"838",5,4,8,-15,-4,1,-6,514
"839",5,4,9,-15,-4,1,-3,494
"840",5,4,10,-15,-4,1,-3,517
"841",5,5,1,16,13,1,11,424
"842",5,5,2,16,13,0,17,624
"843",5,5,3,16,13,0,16,480
"844",5,5,4,16,13,0,16,495
"845",5,5,5,16,13,0,17,486
"846",5,5,6,16,13,0,16,599
"847",5,5,7,16,13,0,14,643
"848",5,5,8,16,13,0,16,763
"849",5,5,9,16,13,0,14,440
"850",5,5,10,16,13,0,16,453
"851",5,6,1,-9,-9,1,-10,730
"852",5,6,2,-9,-9,0,-10,477
"853",5,6,3,-9,-9,0,-8,389
"854",5,6,4,-9,-9,0,-9,502
"855",5,6,5,-9,-9,1,-9,355
"856",5,6,6,-9,-9,1,-9,365
"857",5,6,7,-9,-9,0,-7,372
"858",5,6,8,-9,-9,0,-9,350
"859",5,6,9,-9,-9,0,-10,368
"860",5,6,10,-9,-9,0,-10,341
"861",5,7,1,6,7,1,7,509
"862",5,7,2,6,7,0,5,531
"863",5,7,3,6,7,1,8,355
"864",5,7,4,6,7,1,5,339
"865",5,7,5,6,7,1,7,330
"866",5,7,6,6,7,1,7,342
"867",5,7,7,6,7,1,6,318
"868",5,7,8,6,7,1,7,310
"869",5,7,9,6,7,1,7,408
"870",5,7,10,6,7,1,8,359
"871",5,8,1,14,9,1,9,825
"872",5,8,2,14,9,0,14,396
"873",5,8,3,14,9,0,12,486
"874",5,8,4,14,9,0,15,364
"875",5,8,5,14,9,0,13,329
"876",5,8,6,14,9,0,14,251
"877",5,8,7,14,9,0,13,311
"878",5,8,8,14,9,0,12,313
"879",5,8,9,14,9,0,14,327
"880",5,8,10,14,9,0,15,360
"881",5,9,1,-7,22,0,-7,776
"882",5,9,2,-7,22,1,22,379
"883",5,9,3,-7,22,1,24,320
"884",5,9,4,-7,22,1,22,293
"885",5,9,5,-7,22,1,22,341
"886",5,9,6,-7,22,1,21,315
"887",5,9,7,-7,22,1,21,398
"888",5,9,8,-7,22,1,23,342
"889",5,9,9,-7,22,1,21,342
"890",5,9,10,-7,22,1,22,349
"891",5,10,1,-1,-1,1,-2,515
"892",5,10,2,-1,-1,0,-1,352
"893",5,10,3,-1,-1,0,0,271
"894",5,10,4,-1,-1,0,-3,325
"895",5,10,5,-1,-1,0,-2,353
"896",5,10,6,-1,-1,0,0,323
"897",5,10,7,-1,-1,0,-1,307
"898",5,10,8,-1,-1,0,-1,342
"899",5,10,9,-1,-1,0,-1,301
"900",5,10,10,-1,-1,0,0,325
"901",5,11,1,-3,-17,1,-16,704
"902",5,11,2,-3,-17,0,-4,363
"903",5,11,3,-3,-17,0,-2,358
"904",5,11,4,-3,-17,0,-4,326
"905",5,11,5,-3,-17,0,-4,300
"906",5,11,6,-3,-17,0,-2,305
"907",5,11,7,-3,-17,0,-3,350
"908",5,11,8,-3,-17,0,-2,327
"909",5,11,9,-3,-17,0,-4,331
"910",5,11,10,-3,-17,0,-4,342
"911",5,12,1,0,1,1,1,887
"912",5,12,2,0,1,0,1,395
"913",5,12,3,0,1,0,0,350
"914",5,12,4,0,1,1,1,512
"915",5,12,5,0,1,1,0,296
"916",5,12,6,0,1,1,1,305
"917",5,12,7,0,1,1,1,320
"918",5,12,8,0,1,1,2,320
"919",5,12,9,0,1,1,2,340
"920",5,12,10,0,1,1,0,279
"921",5,13,1,11,-5,1,-5,567
"922",5,13,2,11,-5,0,11,412
"923",5,13,3,11,-5,0,10,304
"924",5,13,4,11,-5,0,12,233
"925",5,13,5,11,-5,0,11,313
"926",5,13,6,11,-5,0,10,320
"927",5,13,7,11,-5,0,10,331
"928",5,13,8,11,-5,0,12,314
"929",5,13,9,11,-5,0,10,288
"930",5,13,10,11,-5,0,10,318
"931",5,14,1,2,-10,0,0,653
"932",5,14,2,2,-10,1,-9,354
"933",5,14,3,2,-10,0,2,361
"934",5,14,4,2,-10,0,1,296
"935",5,14,5,2,-10,0,3,271
"936",5,14,6,2,-10,0,4,304
"937",5,14,7,2,-10,0,2,358
"938",5,14,8,2,-10,0,2,381
"939",5,14,9,2,-10,0,3,328
"940",5,14,10,2,-10,0,3,330
"941",5,15,1,4,-10,0,5,567
"942",5,15,2,4,-10,1,-10,309
"943",5,15,3,4,-10,0,4,374
"944",5,15,4,4,-10,0,7,372
"945",5,15,5,4,-10,0,4,286
"946",5,15,6,4,-10,0,4,319
"947",5,15,7,4,-10,0,5,304
"948",5,15,8,4,-10,0,5,411
"949",5,15,9,4,-10,0,4,341
"950",5,15,10,4,-10,0,3,355
"951",5,16,1,21,-12,0,22,563
"952",5,16,2,21,-12,1,-13,557
"953",5,16,3,21,-12,0,20,425
"954",5,16,4,21,-12,0,22,294
"955",5,16,5,21,-12,0,22,278
"956",5,16,6,21,-12,0,21,301
"957",5,16,7,21,-12,0,21,358
"958",5,16,8,21,-12,0,22,294
"959",5,16,9,21,-12,0,21,332
"960",5,16,10,21,-12,0,21,335
"961",5,17,1,-1,-11,0,-1,416
"962",5,17,2,-1,-11,1,-13,397
"963",5,17,3,-1,-11,0,0,406
"964",5,17,4,-1,-11,0,-3,259
"965",5,17,5,-1,-11,0,0,314
"966",5,17,6,-1,-11,0,-2,337
"967",5,17,7,-1,-11,0,-1,310
"968",5,17,8,-1,-11,0,-2,280
"969",5,17,9,-1,-11,0,-2,319
"970",5,17,10,-1,-11,0,-2,309
"971",5,18,1,3,6,0,1,430
"972",5,18,2,3,6,1,4,619
"973",5,18,3,3,6,1,6,341
"974",5,18,4,3,6,1,5,280
"975",5,18,5,3,6,1,6,634
"976",5,18,6,3,6,1,5,371
"977",5,18,7,3,6,1,5,393
"978",5,18,8,3,6,1,5,397
"979",5,18,9,3,6,1,8,340
"980",5,18,10,3,6,1,5,335
"981",5,19,1,3,-11,1,-12,465
"982",5,19,2,3,-11,0,4,367
"983",5,19,3,3,-11,0,3,290
"984",5,19,4,3,-11,0,2,333
"985",5,19,5,3,-11,0,3,317
"986",5,19,6,3,-11,0,3,318
"987",5,19,7,3,-11,0,3,308
"988",5,19,8,3,-11,0,3,310
"989",5,19,9,3,-11,0,3,329
"990",5,19,10,3,-11,0,3,313
"991",5,20,1,4,-7,0,3,412
"992",5,20,2,4,-7,1,-7,352
"993",5,20,3,4,-7,0,5,366
"994",5,20,4,4,-7,0,3,353
"995",5,20,5,4,-7,0,3,342
"996",5,20,6,4,-7,0,4,319
"997",5,20,7,4,-7,0,1,375
"998",5,20,8,4,-7,0,5,351
"999",5,20,9,4,-7,0,5,339
"1000",5,20,10,4,-7,0,5,309
"1001",6,1,1,0,-8,1,-8,1147
"1002",6,1,2,0,-8,0,0,566
"1003",6,1,3,0,-8,1,-9,470
"1004",6,1,4,0,-8,0,1,449
"1005",6,1,5,0,-8,0,1,495
"1006",6,1,6,0,-8,0,0,436
"1007",6,1,7,0,-8,0,-1,402
"1008",6,1,8,0,-8,0,-1,404
"1009",6,1,9,0,-8,1,-6,415
"1010",6,1,10,0,-8,0,-1,472
"1011",6,2,1,-6,-8,0,-7,552
"1012",6,2,2,-6,-8,1,-7,415
"1013",6,2,3,-6,-8,1,-8,414
"1014",6,2,4,-6,-8,0,-7,427
"1015",6,2,5,-6,-8,0,-6,393
"1016",6,2,6,-6,-8,0,-6,405
"1017",6,2,7,-6,-8,1,-9,437
"1018",6,2,8,-6,-8,1,-7,405
"1019",6,2,9,-6,-8,0,-6,415
"1020",6,2,10,-6,-8,0,-5,347
"1021",6,3,1,-13,-8,1,-8,505
"1022",6,3,2,-13,-8,0,-13,392
"1023",6,3,3,-13,-8,1,-8,462
"1024",6,3,4,-13,-8,0,-13,785
"1025",6,3,5,-13,-8,1,-8,382
"1026",6,3,6,-13,-8,1,-7,381
"1027",6,3,7,-13,-8,1,-10,718
"1028",6,3,8,-13,-8,1,-8,359
"1029",6,3,9,-13,-8,1,-8,369
"1030",6,3,10,-13,-8,0,-12,437
"1031",6,4,1,8,-4,1,-3,655
"1032",6,4,2,8,-4,1,-4,413
"1033",6,4,3,8,-4,1,-4,393
"1034",6,4,4,8,-4,0,8,425
"1035",6,4,5,8,-4,0,8,403
"1036",6,4,6,8,-4,0,9,359
"1037",6,4,7,8,-4,0,6,381
"1038",6,4,8,8,-4,0,10,382
"1039",6,4,9,8,-4,0,7,380
"1040",6,4,10,8,-4,0,8,424
"1041",6,5,1,6,4,1,5,517
"1042",6,5,2,6,4,0,7,415
"1043",6,5,3,6,4,0,6,436
"1044",6,5,4,6,4,1,4,393
"1045",6,5,5,6,4,0,6,393
"1046",6,5,6,6,4,0,6,516
"1047",6,5,7,6,4,1,6,383
"1048",6,5,8,6,4,0,4,400
"1049",6,5,9,6,4,1,4,398
"1050",6,5,10,6,4,0,7,415
"1051",6,6,1,9,-1,1,-1,502
"1052",6,6,2,9,-1,0,9,399
"1053",6,6,3,9,-1,0,9,350
"1054",6,6,4,9,-1,0,9,368
"1055",6,6,5,9,-1,0,8,368
"1056",6,6,6,9,-1,0,7,368
"1057",6,6,7,9,-1,0,9,368
"1058",6,6,8,9,-1,0,9,414
"1059",6,6,9,9,-1,0,10,417
"1060",6,6,10,9,-1,0,9,369
"1061",6,7,1,19,4,1,3,483
"1062",6,7,2,19,4,0,18,436
"1063",6,7,3,19,4,0,17,335
"1064",6,7,4,19,4,0,19,351
"1065",6,7,5,19,4,0,20,336
"1066",6,7,6,19,4,0,18,352
"1067",6,7,7,19,4,0,18,350
"1068",6,7,8,19,4,0,18,383
"1069",6,7,9,19,4,0,19,382
"1070",6,7,10,19,4,0,19,363
"1071",6,8,1,-9,20,1,20,384
"1072",6,8,2,-9,20,0,-9,419
"1073",6,8,3,-9,20,1,20,334
"1074",6,8,4,-9,20,1,19,320
"1075",6,8,5,-9,20,1,19,386
"1076",6,8,6,-9,20,1,21,400
"1077",6,8,7,-9,20,1,20,435
"1078",6,8,8,-9,20,1,21,350
"1079",6,8,9,-9,20,1,20,400
"1080",6,8,10,-9,20,1,20,516
"1081",6,9,1,9,5,1,5,535
"1082",6,9,2,9,5,0,10,432
"1083",6,9,3,9,5,0,8,336
"1084",6,9,4,9,5,0,8,419
"1085",6,9,5,9,5,0,9,499
"1086",6,9,6,9,5,0,9,498
"1087",6,9,7,9,5,0,8,670
"1088",6,9,8,9,5,0,9,383
"1089",6,9,9,9,5,0,9,366
"1090",6,9,10,9,5,0,9,352
"1091",6,10,1,-4,-6,1,-5,753
"1092",6,10,2,-4,-6,0,-4,417
"1093",6,10,3,-4,-6,1,-6,416
"1094",6,10,4,-4,-6,0,-2,476
"1095",6,10,5,-4,-6,1,-6,583
"1096",6,10,6,-4,-6,0,-3,549
"1097",6,10,7,-4,-6,1,-6,886
"1098",6,10,8,-4,-6,0,-4,486
"1099",6,10,9,-4,-6,0,-4,450
"1100",6,10,10,-4,-6,0,-4,486
"1101",6,11,1,4,-20,1,-19,466
"1102",6,11,2,4,-20,0,5,368
"1103",6,11,3,4,-20,0,3,303
"1104",6,11,4,4,-20,0,5,451
"1105",6,11,5,4,-20,0,4,352
"1106",6,11,6,4,-20,0,3,667
"1107",6,11,7,4,-20,0,5,348
"1108",6,11,8,4,-20,0,4,349
"1109",6,11,9,4,-20,0,4,367
"1110",6,11,10,4,-20,0,3,335
"1111",6,12,1,-18,-9,1,-9,417
"1112",6,12,2,-18,-9,0,-18,348
"1113",6,12,3,-18,-9,1,-8,510
"1114",6,12,4,-18,-9,1,-9,357
"1115",6,12,5,-18,-9,1,-9,335
"1116",6,12,6,-18,-9,1,-9,367
"1117",6,12,7,-18,-9,1,-9,352
"1118",6,12,8,-18,-9,1,-9,383
"1119",6,12,9,-18,-9,1,-10,382
"1120",6,12,10,-18,-9,1,-9,465
"1121",6,13,1,-3,-1,1,-1,449
"1122",6,13,2,-3,-1,0,-3,384
"1123",6,13,3,-3,-1,1,-1,367
"1124",6,13,4,-3,-1,1,-1,332
"1125",6,13,5,-3,-1,1,0,335
"1126",6,13,6,-3,-1,1,-2,366
"1127",6,13,7,-3,-1,0,-2,432
"1128",6,13,8,-3,-1,1,-2,382
"1129",6,13,9,-3,-1,1,2,365
"1130",6,13,10,-3,-1,1,1,449
"1131",6,14,1,-1,11,1,11,428
"1132",6,14,2,-1,11,0,-1,418
"1133",6,14,3,-1,11,1,10,384
"1134",6,14,4,-1,11,1,11,400
"1135",6,14,5,-1,11,1,11,315
"1136",6,14,6,-1,11,1,11,364
"1137",6,14,7,-1,11,1,10,384
"1138",6,14,8,-1,11,1,10,366
"1139",6,14,9,-1,11,1,13,436
"1140",6,14,10,-1,11,1,10,433
"1141",6,15,1,-4,4,1,6,499
"1142",6,15,2,-4,4,0,-4,400
"1143",6,15,3,-4,4,1,4,335
"1144",6,15,4,-4,4,1,4,317
"1145",6,15,5,-4,4,1,4,366
"1146",6,15,6,-4,4,1,4,417
"1147",6,15,7,-4,4,1,4,383
"1148",6,15,8,-4,4,1,4,397
"1149",6,15,9,-4,4,1,4,432
"1150",6,15,10,-4,4,1,4,383
"1151",6,16,1,-5,-3,1,-4,420
"1152",6,16,2,-5,-3,0,-6,333
"1153",6,16,3,-5,-3,1,-3,367
"1154",6,16,4,-5,-3,1,-2,333
"1155",6,16,5,-5,-3,1,-2,367
"1156",6,16,6,-5,-3,1,-3,351
"1157",6,16,7,-5,-3,1,-3,381
"1158",6,16,8,-5,-3,1,-2,400
"1159",6,16,9,-5,-3,1,-2,350
"1160",6,16,10,-5,-3,1,-2,365
"1161",6,17,1,-11,-2,1,-2,404
"1162",6,17,2,-11,-2,0,-12,450
"1163",6,17,3,-11,-2,1,0,335
"1164",6,17,4,-11,-2,1,-2,319
"1165",6,17,5,-11,-2,1,-2,333
"1166",6,17,6,-11,-2,1,-3,351
"1167",6,17,7,-11,-2,1,-3,484
"1168",6,17,8,-11,-2,1,-3,334
"1169",6,17,9,-11,-2,1,-3,350
"1170",6,17,10,-11,-2,1,-2,448
"1171",6,18,1,-7,-2,1,-4,400
"1172",6,18,2,-7,-2,0,-9,402
"1173",6,18,3,-7,-2,1,-2,864
"1174",6,18,4,-7,-2,1,-1,366
"1175",6,18,5,-7,-2,1,-2,467
"1176",6,18,6,-7,-2,1,-1,419
"1177",6,18,7,-7,-2,1,-5,733
"1178",6,18,8,-7,-2,1,-1,435
"1179",6,18,9,-7,-2,1,-3,401
"1180",6,18,10,-7,-2,1,-1,463
"1181",6,19,1,-8,-15,1,-15,418
"1182",6,19,2,-8,-15,0,-8,382
"1183",6,19,3,-8,-15,0,-8,400
"1184",6,19,4,-8,-15,0,-8,351
"1185",6,19,5,-8,-15,0,-7,316
"1186",6,19,6,-8,-15,0,-7,333
"1187",6,19,7,-8,-15,0,-7,285
"1188",6,19,8,-8,-15,0,-8,351
"1189",6,19,9,-8,-15,0,-9,401
"1190",6,19,10,-8,-15,0,-9,422
"1191",6,20,1,2,-8,1,-9,400
"1192",6,20,2,2,-8,0,2,367
"1193",6,20,3,2,-8,0,2,384
"1194",6,20,4,2,-8,0,1,630
"1195",6,20,5,2,-8,0,4,353
"1196",6,20,6,2,-8,0,2,498
"1197",6,20,7,2,-8,0,3,415
"1198",6,20,8,2,-8,0,0,366
"1199",6,20,9,2,-8,0,2,319
"1200",6,20,10,2,-8,0,3,418
"1201",7,1,1,-5,-6,1,-7,1241
"1202",7,1,2,-5,-6,0,-5,876
"1203",7,1,3,-5,-6,1,-6,434
"1204",7,1,4,-5,-6,1,-4,382
"1205",7,1,5,-5,-6,0,-4,417
"1206",7,1,6,-5,-6,1,-5,400
"1207",7,1,7,-5,-6,1,-5,512
"1208",7,1,8,-5,-6,1,-7,335
"1209",7,1,9,-5,-6,1,-6,304
"1210",7,1,10,-5,-6,1,-6,303
"1211",7,2,1,-2,5,1,5,849
"1212",7,2,2,-2,5,1,3,463
"1213",7,2,3,-2,5,0,-3,515
"1214",7,2,4,-2,5,1,5,320
"1215",7,2,5,-2,5,1,8,384
"1216",7,2,6,-2,5,1,7,352
"1217",7,2,7,-2,5,1,4,306
"1218",7,2,8,-2,5,1,4,399
"1219",7,2,9,-2,5,1,5,322
"1220",7,2,10,-2,5,1,5,350
"1221",7,3,1,-3,7,1,8,415
"1222",7,3,2,-3,7,0,-3,479
"1223",7,3,3,-3,7,1,7,288
"1224",7,3,4,-3,7,1,6,366
"1225",7,3,5,-3,7,1,6,338
"1226",7,3,6,-3,7,1,7,351
"1227",7,3,7,-3,7,1,8,303
"1228",7,3,8,-3,7,1,7,354
"1229",7,3,9,-3,7,1,7,368
"1230",7,3,10,-3,7,1,8,495
"1231",7,4,1,-8,-9,1,-9,611
"1232",7,4,2,-8,-9,0,-7,337
"1233",7,4,3,-8,-9,0,-9,448
"1234",7,4,4,-8,-9,1,-10,353
"1235",7,4,5,-8,-9,0,-6,318
"1236",7,4,6,-8,-9,0,-10,367
"1237",7,4,7,-8,-9,1,-10,433
"1238",7,4,8,-8,-9,0,-8,363
"1239",7,4,9,-8,-9,1,-9,350
"1240",7,4,10,-8,-9,0,-7,319
"1241",7,5,1,-11,-8,0,-12,642
"1242",7,5,2,-11,-8,1,-9,494
"1243",7,5,3,-11,-8,0,-12,385
"1244",7,5,4,-11,-8,1,-8,353
"1245",7,5,5,-11,-8,1,-6,368
"1246",7,5,6,-11,-8,1,-7,303
"1247",7,5,7,-11,-8,1,-9,304
"1248",7,5,8,-11,-8,1,-6,432
"1249",7,5,9,-11,-8,1,-8,446
"1250",7,5,10,-11,-8,1,-8,443
"1251",7,6,1,1,12,1,12,371
"1252",7,6,2,1,12,0,2,383
"1253",7,6,3,1,12,1,12,303
"1254",7,6,4,1,12,1,13,256
"1255",7,6,5,1,12,1,12,639
"1256",7,6,6,1,12,1,13,290
"1257",7,6,7,1,12,1,13,304
"1258",7,6,8,1,12,1,10,256
"1259",7,6,9,1,12,1,13,303
"1260",7,6,10,1,12,1,13,376
"1261",7,7,1,-16,-11,1,-12,467
"1262",7,7,2,-16,-11,0,-16,384
"1263",7,7,3,-16,-11,1,-11,592
"1264",7,7,4,-16,-11,0,-16,287
"1265",7,7,5,-16,-11,1,-10,256
"1266",7,7,6,-16,-11,1,-12,303
"1267",7,7,7,-16,-11,1,-12,366
"1268",7,7,8,-16,-11,1,-11,284
"1269",7,7,9,-16,-11,1,-10,348
"1270",7,7,10,-16,-11,1,-10,298
"1271",7,8,1,-10,-6,1,-6,415
"1272",7,8,2,-10,-6,0,-13,319
"1273",7,8,3,-10,-6,1,-5,431
"1274",7,8,4,-10,-6,1,-5,283
"1275",7,8,5,-10,-6,1,-6,255
"1276",7,8,6,-10,-6,1,-5,288
"1277",7,8,7,-10,-6,1,-6,304
"1278",7,8,8,-10,-6,1,-5,304
"1279",7,8,9,-10,-6,1,-6,304
"1280",7,8,10,-10,-6,1,-7,319
"1281",7,9,1,-1,-6,1,-5,416
"1282",7,9,2,-1,-6,0,-1,447
"1283",7,9,3,-1,-6,0,-2,417
"1284",7,9,4,-1,-6,0,-2,251
"1285",7,9,5,-1,-6,0,-1,287
"1286",7,9,6,-1,-6,0,0,317
"1287",7,9,7,-1,-6,0,1,339
"1288",7,9,8,-1,-6,0,-3,351
"1289",7,9,9,-1,-6,0,0,320
"1290",7,9,10,-1,-6,0,-1,368
"1291",7,10,1,6,5,0,7,447
"1292",7,10,2,6,5,1,7,357
"1293",7,10,3,6,5,0,4,319
"1294",7,10,4,6,5,1,7,315
"1295",7,10,5,6,5,1,3,269
"1296",7,10,6,6,5,0,7,368
"1297",7,10,7,6,5,0,6,367
"1298",7,10,8,6,5,0,7,303
"1299",7,10,9,6,5,0,6,322
"1300",7,10,10,6,5,0,6,347
"1301",7,11,1,7,-14,0,6,448
"1302",7,11,2,7,-14,1,-13,303
"1303",7,11,3,7,-14,0,6,399
"1304",7,11,4,7,-14,0,8,319
"1305",7,11,5,7,-14,0,7,271
"1306",7,11,6,7,-14,0,8,303
"1307",7,11,7,7,-14,0,6,417
"1308",7,11,8,7,-14,0,6,6616
"1309",7,11,9,7,-14,0,6,294
"1310",7,11,10,7,-14,0,8,272
"1311",7,12,1,7,-2,1,0,656
"1312",7,12,2,7,-2,0,7,336
"1313",7,12,3,7,-2,0,6,465
"1314",7,12,4,7,-2,0,8,271
"1315",7,12,5,7,-2,0,5,273
"1316",7,12,6,7,-2,0,6,288
"1317",7,12,7,7,-2,0,7,369
"1318",7,12,8,7,-2,0,6,306
"1319",7,12,9,7,-2,0,8,320
"1320",7,12,10,7,-2,0,8,272
"1321",7,13,1,6,6,0,5,496
"1322",7,13,2,6,6,1,4,630
"1323",7,13,3,6,6,0,7,303
"1324",7,13,4,6,6,1,7,499
"1325",7,13,5,6,6,0,6,368
"1326",7,13,6,6,6,1,4,305
"1327",7,13,7,6,6,0,7,271
"1328",7,13,8,6,6,0,5,334
"1329",7,13,9,6,6,0,8,303
"1330",7,13,10,6,6,0,7,338
"1331",7,14,1,-16,-20,0,-16,414
"1332",7,14,2,-16,-20,1,-20,321
"1333",7,14,3,-16,-20,0,-15,400
"1334",7,14,4,-16,-20,1,-21,332
"1335",7,14,5,-16,-20,0,-14,512
"1336",7,14,6,-16,-20,0,-16,288
"1337",7,14,7,-16,-20,0,-17,319
"1338",7,14,8,-16,-20,0,-16,287
"1339",7,14,9,-16,-20,0,-16,349
"1340",7,14,10,-16,-20,0,-17,302
"1341",7,15,1,5,1,0,6,448
"1342",7,15,2,5,1,1,0,476
"1343",7,15,3,5,1,0,5,1458
"1344",7,15,4,5,1,0,6,1069
"1345",7,15,5,5,1,0,6,352
"1346",7,15,6,5,1,0,5,340
"1347",7,15,7,5,1,0,3,386
"1348",7,15,8,5,1,0,4,381
"1349",7,15,9,5,1,0,5,354
"1350",7,15,10,5,1,0,5,387
"1351",7,16,1,-14,4,0,-14,400
"1352",7,16,2,-14,4,1,3,335
"1353",7,16,3,-14,4,1,3,335
"1354",7,16,4,-14,4,1,4,321
"1355",7,16,5,-14,4,1,2,287
"1356",7,16,6,-14,4,1,4,319
"1357",7,16,7,-14,4,1,6,303
"1358",7,16,8,-14,4,1,4,304
"1359",7,16,9,-14,4,1,4,322
"1360",7,16,10,-14,4,1,3,351
"1361",7,17,1,-9,-4,0,-10,352
"1362",7,17,2,-9,-4,1,-4,399
"1363",7,17,3,-9,-4,0,-10,384
"1364",7,17,4,-9,-4,1,-4,367
"1365",7,17,5,-9,-4,1,-4,309
"1366",7,17,6,-9,-4,1,-5,286
"1367",7,17,7,-9,-4,1,-5,333
"1368",7,17,8,-9,-4,1,-5,495
"1369",7,17,9,-9,-4,1,-5,352
"1370",7,17,10,-9,-4,1,-5,368
"1371",7,18,1,12,6,0,13,385
"1372",7,18,2,12,6,1,5,383
"1373",7,18,3,12,6,0,11,287
"1374",7,18,4,12,6,0,13,591
"1375",7,18,5,12,6,0,11,319
"1376",7,18,6,12,6,0,12,320
"1377",7,18,7,12,6,0,12,401
"1378",7,18,8,12,6,0,11,380
"1379",7,18,9,12,6,0,13,319
"1380",7,18,10,12,6,0,13,303
"1381",7,19,1,8,2,0,8,536
"1382",7,19,2,8,2,1,4,382
"1383",7,19,3,8,2,0,8,303
"1384",7,19,4,8,2,0,8,367
"1385",7,19,5,8,2,0,9,289
"1386",7,19,6,8,2,0,9,257
"1387",7,19,7,8,2,0,8,273
"1388",7,19,8,8,2,0,8,349
"1389",7,19,9,8,2,0,9,336
"1390",7,19,10,8,2,0,9,315
"1391",7,20,1,14,1,0,13,418
"1392",7,20,2,14,1,1,0,830
"1393",7,20,3,14,1,0,15,329
"1394",7,20,4,14,1,0,14,273
"1395",7,20,5,14,1,0,15,273
"1396",7,20,6,14,1,0,15,284
"1397",7,20,7,14,1,0,15,337
"1398",7,20,8,14,1,0,16,336
"1399",7,20,9,14,1,0,15,306
"1400",7,20,10,14,1,0,15,335
"1401",8,1,1,-10,12,0,-11,1256
"1402",8,1,2,-10,12,1,11,901
"1403",8,1,3,-10,12,1,13,791
"1404",8,1,4,-10,12,1,12,888
"1405",8,1,5,-10,12,1,10,1080
"1406",8,1,6,-10,12,0,-11,688
"1407",8,1,7,-10,12,1,11,569
"1408",8,1,8,-10,12,1,13,552
"1409",8,1,9,-10,12,1,13,656
"1410",8,1,10,-10,12,1,12,576
"1411",8,2,1,2,-1,0,3,1344
"1412",8,2,2,2,-1,1,0,712
"1413",8,2,3,2,-1,1,-1,864
"1414",8,2,4,2,-1,0,3,871
"1415",8,2,5,2,-1,0,1,696
"1416",8,2,6,2,-1,0,2,576
"1417",8,2,7,2,-1,1,1,616
"1418",8,2,8,2,-1,1,-1,791
"1419",8,2,9,2,-1,0,1,664
"1420",8,2,10,2,-1,0,2,856
"1421",8,3,1,-2,-2,0,-2,1401
"1422",8,3,2,-2,-2,0,-3,626
"1423",8,3,3,-2,-2,0,-3,616
"1424",8,3,4,-2,-2,1,-1,488
"1425",8,3,5,-2,-2,1,0,575
"1426",8,3,6,-2,-2,1,-1,519
"1427",8,3,7,-2,-2,1,-2,471
"1428",8,3,8,-2,-2,1,-3,480
"1429",8,3,9,-2,-2,1,-1,615
"1430",8,3,10,-2,-2,0,-2,1112
"1431",8,4,1,-8,-7,0,-7,1184
"1432",8,4,2,-8,-7,1,-6,544
"1433",8,4,3,-8,-7,1,-8,831
"1434",8,4,4,-8,-7,0,-7,639
"1435",8,4,5,-8,-7,0,-9,682
"1436",8,4,6,-8,-7,1,-8,606
"1437",8,4,7,-8,-7,1,-7,641
"1438",8,4,8,-8,-7,1,-6,680
"1439",8,4,9,-8,-7,1,-6,560
"1440",8,4,10,-8,-7,0,-9,528
"1441",8,5,1,7,-8,0,8,1033
"1442",8,5,2,7,-8,0,7,929
"1443",8,5,3,7,-8,1,-7,631
"1444",8,5,4,7,-8,1,-9,831
"1445",8,5,5,7,-8,0,7,457
"1446",8,5,6,7,-8,0,7,496
"1447",8,5,7,7,-8,0,9,496
"1448",8,5,8,7,-8,0,7,774
"1449",8,5,9,7,-8,0,7,504
"1450",8,5,10,7,-8,0,7,517
"1451",8,6,1,-6,-5,0,-8,1305
"1452",8,6,2,-6,-5,1,-5,496
"1453",8,6,3,-6,-5,0,-6,856
"1454",8,6,4,-6,-5,1,-5,680
"1455",8,6,5,-6,-5,1,-5,592
"1456",8,6,6,-6,-5,0,-6,608
"1457",8,6,7,-6,-5,1,-6,567
"1458",8,6,8,-6,-5,1,-5,616
"1459",8,6,9,-6,-5,1,-6,552
"1460",8,6,10,-6,-5,1,-4,583
"1461",8,7,1,-3,8,0,-2,894
"1462",8,7,2,-3,8,0,-4,632
"1463",8,7,3,-3,8,1,8,518
"1464",8,7,4,-3,8,1,8,467
"1465",8,7,5,-3,8,1,9,529
"1466",8,7,6,-3,8,1,8,472
"1467",8,7,7,-3,8,1,7,658
"1468",8,7,8,-3,8,1,6,462
"1469",8,7,9,-3,8,1,11,560
"1470",8,7,10,-3,8,1,6,655
"1471",8,8,1,-10,-13,0,-10,1353
"1472",8,8,2,-10,-13,1,-14,926
"1473",8,8,3,-10,-13,1,-13,888
"1474",8,8,4,-10,-13,0,-11,629
"1475",8,8,5,-10,-13,0,-10,568
"1476",8,8,6,-10,-13,0,-12,761
"1477",8,8,7,-10,-13,1,-13,575
"1478",8,8,8,-10,-13,0,-10,504
"1479",8,8,9,-10,-13,0,-12,590
"1480",8,8,10,-10,-13,0,-9,526
"1481",8,9,1,-14,-5,0,-14,976
"1482",8,9,2,-14,-5,0,-15,1143
"1483",8,9,3,-14,-5,1,-4,544
"1484",8,9,4,-14,-5,1,-4,598
"1485",8,9,5,-14,-5,1,-6,486
"1486",8,9,6,-14,-5,1,-4,488
"1487",8,9,7,-14,-5,1,-4,416
"1488",8,9,8,-14,-5,1,-5,456
"1489",8,9,9,-14,-5,1,-5,552
"1490",8,9,10,-14,-5,1,-5,431
"1491",8,10,1,0,2,0,0,876
"1492",8,10,2,0,2,0,-1,1007
"1493",8,10,3,0,2,1,3,545
"1494",8,10,4,0,2,1,2,456
"1495",8,10,5,0,2,1,1,478
"1496",8,10,6,0,2,1,3,529
"1497",8,10,7,0,2,1,4,487
"1498",8,10,8,0,2,1,3,592
"1499",8,10,9,0,2,0,0,589
"1500",8,10,10,0,2,1,2,566
"1501",8,11,1,2,17,0,2,1055
"1502",8,11,2,2,17,0,0,1037
"1503",8,11,3,2,17,1,18,657
"1504",8,11,4,2,17,1,18,504
"1505",8,11,5,2,17,1,18,511
"1506",8,11,6,2,17,1,16,496
"1507",8,11,7,2,17,1,19,456
"1508",8,11,8,2,17,1,16,455
"1509",8,11,9,2,17,1,18,444
"1510",8,11,10,2,17,1,18,408
"1511",8,12,1,-8,-11,0,-7,830
"1512",8,12,2,-8,-11,1,-10,488
"1513",8,12,3,-8,-11,0,-9,639
"1514",8,12,4,-8,-11,1,-11,728
"1515",8,12,5,-8,-11,0,-9,512
"1516",8,12,6,-8,-11,0,-6,552
"1517",8,12,7,-8,-11,0,-9,480
"1518",8,12,8,-8,-11,0,-8,533
"1519",8,12,9,-8,-11,0,-7,511
"1520",8,12,10,-8,-11,0,-9,607
"1521",8,13,1,-7,2,0,-6,983
"1522",8,13,2,-7,2,1,2,1688
"1523",8,13,3,-7,2,1,3,1008
"1524",8,13,4,-7,2,0,-7,864
"1525",8,13,5,-7,2,1,1,543
"1526",8,13,6,-7,2,1,2,457
"1527",8,13,7,-7,2,1,4,494
"1528",8,13,8,-7,2,1,1,551
"1529",8,13,9,-7,2,1,1,600
"1530",8,13,10,-7,2,1,0,510
"1531",8,14,1,5,1,0,4,961
"1532",8,14,2,5,1,1,2,520
"1533",8,14,3,5,1,1,1,1143
"1534",8,14,4,5,1,0,6,464
"1535",8,14,5,5,1,0,4,441
"1536",8,14,6,5,1,0,5,512
"1537",8,14,7,5,1,0,3,583
"1538",8,14,8,5,1,0,5,479
"1539",8,14,9,5,1,0,4,486
"1540",8,14,10,5,1,0,5,455
"1541",8,15,1,-8,-6,0,-9,1351
"1542",8,15,2,-8,-6,1,-6,1375
"1543",8,15,3,-8,-6,1,-5,713
"1544",8,15,4,-8,-6,1,-6,536
"1545",8,15,5,-8,-6,0,-9,824
"1546",8,15,6,-8,-6,1,-7,479
"1547",8,15,7,-8,-6,1,-6,474
"1548",8,15,8,-8,-6,1,-5,440
"1549",8,15,9,-8,-6,1,-6,511
"1550",8,15,10,-8,-6,1,-6,535
"1551",8,16,1,-7,10,0,-7,832
"1552",8,16,2,-7,10,1,9,1306
"1553",8,16,3,-7,10,1,9,408
"1554",8,16,4,-7,10,1,11,543
"1555",8,16,5,-7,10,1,11,454
"1556",8,16,6,-7,10,1,9,461
"1557",8,16,7,-7,10,1,10,438
"1558",8,16,8,-7,10,1,11,448
"1559",8,16,9,-7,10,1,9,470
"1560",8,16,10,-7,10,1,11,503
"1561",8,17,1,1,-4,1,-5,937
"1562",8,17,2,1,-4,0,2,447
"1563",8,17,3,1,-4,0,2,1399
"1564",8,17,4,1,-4,0,2,440
"1565",8,17,5,1,-4,0,1,448
"1566",8,17,6,1,-4,0,0,423
"1567",8,17,7,1,-4,0,-1,463
"1568",8,17,8,1,-4,0,1,471
"1569",8,17,9,1,-4,0,1,455
"1570",8,17,10,1,-4,0,1,448
"1571",8,18,1,-7,7,0,-7,776
"1572",8,18,2,-7,7,1,8,528
"1573",8,18,3,-7,7,1,8,470
"1574",8,18,4,-7,7,1,7,472
"1575",8,18,5,-7,7,1,5,414
"1576",8,18,6,-7,7,1,7,437
"1577",8,18,7,-7,7,1,7,408
"1578",8,18,8,-7,7,1,7,487
"1579",8,18,9,-7,7,1,9,441
"1580",8,18,10,-7,7,1,8,464
"1581",8,19,1,-4,1,1,0,896
"1582",8,19,2,-4,1,0,-4,687
"1583",8,19,3,-4,1,1,1,615
"1584",8,19,4,-4,1,1,0,431
"1585",8,19,5,-4,1,1,3,464
"1586",8,19,6,-4,1,1,1,453
"1587",8,19,7,-4,1,0,-4,670
"1588",8,19,8,-4,1,1,0,478
"1589",8,19,9,-4,1,1,0,577
"1590",8,19,10,-4,1,1,1,480
"1591",8,20,1,-8,0,1,1,727
"1592",8,20,2,-8,0,0,-9,647
"1593",8,20,3,-8,0,1,-1,576
"1594",8,20,4,-8,0,1,0,607
"1595",8,20,5,-8,0,1,-1,543
"1596",8,20,6,-8,0,1,-1,511
"1597",8,20,7,-8,0,1,0,584
"1598",8,20,8,-8,0,1,-1,481
"1599",8,20,9,-8,0,1,-1,501
"1600",8,20,10,-8,0,1,-2,504
"1601",9,1,1,2,12,1,12,1773
"1602",9,1,2,2,12,0,1,846
"1603",9,1,3,2,12,1,11,704
"1604",9,1,4,2,12,1,11,496
"1605",9,1,5,2,12,1,12,386
"1606",9,1,6,2,12,1,12,335
"1607",9,1,7,2,12,1,11,327
"1608",9,1,8,2,12,1,14,427
"1609",9,1,9,2,12,1,11,369
"1610",9,1,10,2,12,1,12,319
"1611",9,2,1,-1,1,1,2,3104
"1612",9,2,2,-1,1,0,-1,496
"1613",9,2,3,-1,1,1,2,563
"1614",9,2,4,-1,1,0,0,1271
"1615",9,2,5,-1,1,1,1,662
"1616",9,2,6,-1,1,0,0,624
"1617",9,2,7,-1,1,1,3,638
"1618",9,2,8,-1,1,1,1,456
"1619",9,2,9,-1,1,1,1,529
"1620",9,2,10,-1,1,1,0,917
"1621",9,3,1,5,10,0,4,1480
"1622",9,3,2,5,10,1,9,575
"1623",9,3,3,5,10,1,10,449
"1624",9,3,4,5,10,1,8,358
"1625",9,3,5,5,10,1,9,343
"1626",9,3,6,5,10,1,10,372
"1627",9,3,7,5,10,1,9,415
"1628",9,3,8,5,10,1,12,424
"1629",9,3,9,5,10,1,11,385
"1630",9,3,10,5,10,1,10,384
"1631",9,4,1,-13,-7,1,-7,1623
"1632",9,4,2,-13,-7,0,-15,527
"1633",9,4,3,-13,-7,1,-7,399
"1634",9,4,4,-13,-7,1,-6,1215
"1635",9,4,5,-13,-7,1,-7,452
"1636",9,4,6,-13,-7,0,-12,822
"1637",9,4,7,-13,-7,1,-7,422
"1638",9,4,8,-13,-7,1,-7,342
"1639",9,4,9,-13,-7,1,-7,384
"1640",9,4,10,-13,-7,1,-7,408
"1641",9,5,1,-13,5,1,4,1880
"1642",9,5,2,-13,5,0,-13,439
"1643",9,5,3,-13,5,1,5,503
"1644",9,5,4,-13,5,1,6,401
"1645",9,5,5,-13,5,1,3,408
"1646",9,5,6,-13,5,1,5,399
"1647",9,5,7,-13,5,1,3,381
"1648",9,5,8,-13,5,1,6,398
"1649",9,5,9,-13,5,1,5,376
"1650",9,5,10,-13,5,1,4,357
"1651",9,6,1,22,-6,0,22,1155
"1652",9,6,2,22,-6,0,23,328
"1653",9,6,3,22,-6,0,23,332
"1654",9,6,4,22,-6,1,-5,637
"1655",9,6,5,22,-6,0,22,328
"1656",9,6,6,22,-6,0,22,327
"1657",9,6,7,22,-6,0,20,480
"1658",9,6,8,22,-6,0,19,328
"1659",9,6,9,22,-6,0,23,373
"1660",9,6,10,22,-6,0,21,377
"1661",9,7,1,5,-5,0,6,1176
"1662",9,7,2,5,-5,1,-5,447
"1663",9,7,3,5,-5,0,5,404
"1664",9,7,4,5,-5,0,5,391
"1665",9,7,5,5,-5,0,6,319
"1666",9,7,6,5,-5,0,4,344
"1667",9,7,7,5,-5,0,6,369
"1668",9,7,8,5,-5,0,4,351
"1669",9,7,9,5,-5,0,4,390
"1670",9,7,10,5,-5,0,4,498
"1671",9,8,1,10,7,1,5,1159
"1672",9,8,2,10,7,0,9,392
"1673",9,8,3,10,7,0,9,376
"1674",9,8,4,10,7,0,8,327
"1675",9,8,5,10,7,0,10,399
"1676",9,8,6,10,7,0,11,412
"1677",9,8,7,10,7,0,9,399
"1678",9,8,8,10,7,0,10,416
"1679",9,8,9,10,7,0,10,407
"1680",9,8,10,10,7,0,10,397
"1681",9,9,1,10,-6,0,10,2090
"1682",9,9,2,10,-6,1,-7,400
"1683",9,9,3,10,-6,0,10,359
"1684",9,9,4,10,-6,0,10,311
"1685",9,9,5,10,-6,0,10,384
"1686",9,9,6,10,-6,0,8,390
"1687",9,9,7,10,-6,0,9,632
"1688",9,9,8,10,-6,0,9,703
"1689",9,9,9,10,-6,0,11,742
"1690",9,9,10,10,-6,0,11,389
"1691",9,10,1,6,4,1,3,1264
"1692",9,10,2,6,4,1,5,591
"1693",9,10,3,6,4,0,4,421
"1694",9,10,4,6,4,1,4,561
"1695",9,10,5,6,4,0,4,430
"1696",9,10,6,6,4,1,3,384
"1697",9,10,7,6,4,0,7,398
"1698",9,10,8,6,4,0,4,358
"1699",9,10,9,6,4,0,6,366
"1700",9,10,10,6,4,0,7,783
"1701",9,11,1,8,12,1,13,1088
"1702",9,11,2,8,12,1,12,417
"1703",9,11,3,8,12,1,13,366
"1704",9,11,4,8,12,0,8,423
"1705",9,11,5,8,12,1,13,390
"1706",9,11,6,8,12,0,8,616
"1707",9,11,7,8,12,1,13,440
"1708",9,11,8,8,12,1,12,384
"1709",9,11,9,8,12,1,12,342
"1710",9,11,10,8,12,1,12,335
"1711",9,12,1,0,-3,0,1,920
"1712",9,12,2,0,-3,1,-4,353
"1713",9,12,3,0,-3,0,0,304
"1714",9,12,4,0,-3,0,0,353
"1715",9,12,5,0,-3,0,-1,366
"1716",9,12,6,0,-3,1,-3,356
"1717",9,12,7,0,-3,0,0,376
"1718",9,12,8,0,-3,0,-1,335
"1719",9,12,9,0,-3,0,-1,360
"1720",9,12,10,0,-3,0,-2,331
"1721",9,13,1,2,11,0,3,913
"1722",9,13,2,2,11,0,1,416
"1723",9,13,3,2,11,1,10,375
"1724",9,13,4,2,11,1,13,360
"1725",9,13,5,2,11,1,11,1233
"1726",9,13,6,2,11,1,11,473
"1727",9,13,7,2,11,1,11,359
"1728",9,13,8,2,11,1,10,383
"1729",9,13,9,2,11,1,11,393
"1730",9,13,10,2,11,1,10,417
"1731",9,14,1,-16,-4,1,-6,945
"1732",9,14,2,-16,-4,0,-16,321
"1733",9,14,3,-16,-4,1,-5,329
"1734",9,14,4,-16,-4,1,-3,327
"1735",9,14,5,-16,-4,1,-6,365
"1736",9,14,6,-16,-4,1,-5,303
"1737",9,14,7,-16,-4,1,-3,359
"1738",9,14,8,-16,-4,1,-5,327
"1739",9,14,9,-16,-4,1,-5,336
"1740",9,14,10,-16,-4,1,-5,360
"1741",9,15,1,10,5,1,5,751
"1742",9,15,2,10,5,0,8,360
"1743",9,15,3,10,5,0,9,429
"1744",9,15,4,10,5,0,9,351
"1745",9,15,5,10,5,0,10,374
"1746",9,15,6,10,5,0,9,392
"1747",9,15,7,10,5,0,10,462
"1748",9,15,8,10,5,0,12,342
"1749",9,15,9,10,5,0,11,360
"1750",9,15,10,10,5,0,10,392
"1751",9,16,1,-18,-11,1,-11,752
"1752",9,16,2,-18,-11,0,-19,336
"1753",9,16,3,-18,-11,1,-12,342
"1754",9,16,4,-18,-11,1,-10,312
"1755",9,16,5,-18,-11,1,-11,356
"1756",9,16,6,-18,-11,1,-11,347
"1757",9,16,7,-18,-11,1,-10,368
"1758",9,16,8,-18,-11,1,-10,368
"1759",9,16,9,-18,-11,1,-10,366
"1760",9,16,10,-18,-11,1,-12,336
"1761",9,17,1,0,13,1,15,504
"1762",9,17,2,0,13,0,0,340
"1763",9,17,3,0,13,1,12,342
"1764",9,17,4,0,13,1,12,337
"1765",9,17,5,0,13,1,13,321
"1766",9,17,6,0,13,1,13,344
"1767",9,17,7,0,13,1,14,327
"1768",9,17,8,0,13,1,14,384
"1769",9,17,9,0,13,1,15,367
"1770",9,17,10,0,13,1,12,352
"1771",9,18,1,-6,15,0,-6,951
"1772",9,18,2,-6,15,1,15,361
"1773",9,18,3,-6,15,1,14,390
"1774",9,18,4,-6,15,1,14,433
"1775",9,18,5,-6,15,1,15,440
"1776",9,18,6,-6,15,1,14,526
"1777",9,18,7,-6,15,1,15,452
"1778",9,18,8,-6,15,1,18,406
"1779",9,18,9,-6,15,1,15,433
"1780",9,18,10,-6,15,1,15,441
"1781",9,19,1,0,-1,1,0,1032
"1782",9,19,2,0,-1,0,2,347
"1783",9,19,3,0,-1,0,0,398
"1784",9,19,4,0,-1,1,0,365
"1785",9,19,5,0,-1,0,0,367
"1786",9,19,6,0,-1,1,0,448
"1787",9,19,7,0,-1,0,0,461
"1788",9,19,8,0,-1,0,-1,344
"1789",9,19,9,0,-1,0,-1,408
"1790",9,19,10,0,-1,1,-2,378
"1791",9,20,1,-1,-3,0,-1,1016
"1792",9,20,2,-1,-3,1,-3,391
"1793",9,20,3,-1,-3,0,0,465
"1794",9,20,4,-1,-3,0,0,368
"1795",9,20,5,-1,-3,0,-3,308
"1796",9,20,6,-1,-3,0,-1,407
"1797",9,20,7,-1,-3,0,0,360
"1798",9,20,8,-1,-3,0,-2,401
"1799",9,20,9,-1,-3,0,-2,355
"1800",9,20,10,-1,-3,0,-1,391
"1801",10,1,1,5,-4,0,6,2320
"1802",10,1,2,5,-4,0,6,1093
"1803",10,1,3,5,-4,0,4,1134
"1804",10,1,4,5,-4,1,-4,903
"1805",10,1,5,5,-4,0,6,800
"1806",10,1,6,5,-4,0,5,839
"1807",10,1,7,5,-4,0,4,887
"1808",10,1,8,5,-4,0,5,895
"1809",10,1,9,5,-4,0,5,831
"1810",10,1,10,5,-4,0,6,768
"1811",10,2,1,10,2,1,2,2288
"1812",10,2,2,10,2,0,11,935
"1813",10,2,3,10,2,0,11,887
"1814",10,2,4,10,2,0,9,871
"1815",10,2,5,10,2,0,11,871
"1816",10,2,6,10,2,0,10,791
"1817",10,2,7,10,2,0,9,584
"1818",10,2,8,10,2,0,9,560
"1819",10,2,9,10,2,0,10,519
"1820",10,2,10,10,2,0,10,560
"1821",10,3,1,10,-8,1,-8,2064
"1822",10,3,2,10,-8,0,9,598
"1823",10,3,3,10,-8,0,12,534
"1824",10,3,4,10,-8,0,11,528
"1825",10,3,5,10,-8,0,12,527
"1826",10,3,6,10,-8,0,10,576
"1827",10,3,7,10,-8,0,10,527
"1828",10,3,8,10,-8,0,10,528
"1829",10,3,9,10,-8,0,10,511
"1830",10,3,10,10,-8,0,9,472
"1831",10,4,1,8,0,0,7,1184
"1832",10,4,2,8,0,1,0,728
"1833",10,4,3,8,0,0,9,527
"1834",10,4,4,8,0,0,9,495
"1835",10,4,5,8,0,0,8,471
"1836",10,4,6,8,0,0,7,471
"1837",10,4,7,8,0,0,7,526
"1838",10,4,8,8,0,0,10,518
"1839",10,4,9,8,0,0,10,512
"1840",10,4,10,8,0,0,8,511
"1841",10,5,1,6,-3,0,6,1022
"1842",10,5,2,6,-3,1,-3,543
"1843",10,5,3,6,-3,0,6,453
"1844",10,5,4,6,-3,0,6,431
"1845",10,5,5,6,-3,0,7,392
"1846",10,5,6,6,-3,0,7,431
"1847",10,5,7,6,-3,0,9,431
"1848",10,5,8,6,-3,0,7,414
"1849",10,5,9,6,-3,0,6,504
"1850",10,5,10,6,-3,0,7,469
"1851",10,6,1,-2,-3,0,-2,1423
"1852",10,6,2,-2,-3,1,-3,495
"1853",10,6,3,-2,-3,0,-3,567
"1854",10,6,4,-2,-3,1,-3,566
"1855",10,6,5,-2,-3,1,-4,599
"1856",10,6,6,-2,-3,0,0,567
"1857",10,6,7,-2,-3,0,-2,503
"1858",10,6,8,-2,-3,0,-2,751
"1859",10,6,9,-2,-3,1,-3,584
"1860",10,6,10,-2,-3,0,-1,632
"1861",10,7,1,9,6,0,9,728
"1862",10,7,2,9,6,1,5,511
"1863",10,7,3,9,6,0,9,495
"1864",10,7,4,9,6,0,7,526
"1865",10,7,5,9,6,0,9,511
"1866",10,7,6,9,6,0,8,536
"1867",10,7,7,9,6,0,9,496
"1868",10,7,8,9,6,0,8,495
"1869",10,7,9,9,6,0,9,551
"1870",10,7,10,9,6,0,9,552
"1871",10,8,1,6,18,0,7,808
"1872",10,8,2,6,18,1,18,479
"1873",10,8,3,6,18,1,18,535
"1874",10,8,4,6,18,1,18,551
"1875",10,8,5,6,18,1,17,560
"1876",10,8,6,6,18,1,19,511
"1877",10,8,7,6,18,1,19,527
"1878",10,8,8,6,18,1,16,496
"1879",10,8,9,6,18,1,17,511
"1880",10,8,10,6,18,1,19,544
"1881",10,9,1,-11,4,1,4,712
"1882",10,9,2,-11,4,0,-12,495
"1883",10,9,3,-11,4,1,4,471
"1884",10,9,4,-11,4,1,3,471
"1885",10,9,5,-11,4,1,4,519
"1886",10,9,6,-11,4,1,5,503
"1887",10,9,7,-11,4,1,3,576
"1888",10,9,8,-11,4,1,5,631
"1889",10,9,9,-11,4,1,4,640
"1890",10,9,10,-11,4,1,4,440
"1891",10,10,1,-4,-2,0,-5,1007
"1892",10,10,2,-4,-2,1,0,456
"1893",10,10,3,-4,-2,1,-1,502
"1894",10,10,4,-4,-2,0,-5,518
"1895",10,10,5,-4,-2,1,-2,495
"1896",10,10,6,-4,-2,1,-3,496
"1897",10,10,7,-4,-2,1,0,528
"1898",10,10,8,-4,-2,1,-3,608
"1899",10,10,9,-4,-2,0,-5,528
"1900",10,10,10,-4,-2,1,-2,511
"1901",10,11,1,-2,26,1,26,720
"1902",10,11,2,-2,26,1,26,953
"1903",10,11,3,-2,26,1,27,496
"1904",10,11,4,-2,26,1,25,535
"1905",10,11,5,-2,26,1,27,560
"1906",10,11,6,-2,26,1,26,543
"1907",10,11,7,-2,26,1,27,504
"1908",10,11,8,-2,26,1,27,497
"1909",10,11,9,-2,26,1,25,447
"1910",10,11,10,-2,26,1,26,456
"1911",10,12,1,-3,-8,1,-7,793
"1912",10,12,2,-3,-8,0,-2,511
"1913",10,12,3,-3,-8,0,-2,2647
"1914",10,12,4,-3,-8,0,-5,647
"1915",10,12,5,-3,-8,1,-6,463
"1916",10,12,6,-3,-8,0,-4,448
"1917",10,12,7,-3,-8,0,-3,431
"1918",10,12,8,-3,-8,0,-3,376
"1919",10,12,9,-3,-8,0,-4,407
"1920",10,12,10,-3,-8,0,-3,408
"1921",10,13,1,23,5,0,21,744
"1922",10,13,2,23,5,0,23,552
"1923",10,13,3,23,5,0,22,623
"1924",10,13,4,23,5,0,23,511
"1925",10,13,5,23,5,0,22,502
"1926",10,13,6,23,5,0,23,576
"1927",10,13,7,23,5,0,23,535
"1928",10,13,8,23,5,0,22,557
"1929",10,13,9,23,5,0,24,536
"1930",10,13,10,23,5,0,23,479
"1931",10,14,1,-1,-3,0,-2,808
"1932",10,14,2,-1,-3,1,-4,391
"1933",10,14,3,-1,-3,0,0,391
"1934",10,14,4,-1,-3,0,0,398
"1935",10,14,5,-1,-3,0,-1,495
"1936",10,14,6,-1,-3,0,-1,464
"1937",10,14,7,-1,-3,0,-3,455
"1938",10,14,8,-1,-3,0,-2,424
"1939",10,14,9,-1,-3,0,1,416
"1940",10,14,10,-1,-3,0,-2,479
"1941",10,15,1,-1,6,0,-1,713
"1942",10,15,2,-1,6,1,5,424
"1943",10,15,3,-1,6,1,7,392
"1944",10,15,4,-1,6,1,4,504
"1945",10,15,5,-1,6,1,6,398
"1946",10,15,6,-1,6,1,6,431
"1947",10,15,7,-1,6,1,6,432
"1948",10,15,8,-1,6,1,5,383
"1949",10,15,9,-1,6,1,6,367
"1950",10,15,10,-1,6,1,7,528
"1951",10,16,1,18,4,1,5,968
"1952",10,16,2,18,4,0,19,558
"1953",10,16,3,18,4,0,19,807
"1954",10,16,4,18,4,0,18,527
"1955",10,16,5,18,4,0,18,479
"1956",10,16,6,18,4,0,20,455
"1957",10,16,7,18,4,0,20,454
"1958",10,16,8,18,4,0,17,448
"1959",10,16,9,18,4,0,17,462
"1960",10,16,10,18,4,0,19,496
"1961",10,17,1,8,-4,0,8,760
"1962",10,17,2,8,-4,1,-5,439
"1963",10,17,3,8,-4,0,9,447
"1964",10,17,4,8,-4,0,8,438
"1965",10,17,5,8,-4,0,8,544
"1966",10,17,6,8,-4,0,9,391
"1967",10,17,7,8,-4,0,8,534
"1968",10,17,8,8,-4,0,7,432
"1969",10,17,9,8,-4,0,8,503
"1970",10,17,10,8,-4,0,7,464
"1971",10,18,1,2,-13,0,1,856
"1972",10,18,2,2,-13,1,-14,615
"1973",10,18,3,2,-13,0,1,456
"1974",10,18,4,2,-13,0,1,416
"1975",10,18,5,2,-13,0,2,430
"1976",10,18,6,2,-13,0,1,392
"1977",10,18,7,2,-13,0,2,351
"1978",10,18,8,2,-13,0,3,368
"1979",10,18,9,2,-13,0,2,478
"1980",10,18,10,2,-13,0,1,336
"1981",10,19,1,-6,-6,0,-6,681
"1982",10,19,2,-6,-6,1,-7,432
"1983",10,19,3,-6,-6,0,-7,495
"1984",10,19,4,-6,-6,1,-7,447
"1985",10,19,5,-6,-6,0,-6,408
"1986",10,19,6,-6,-6,0,-6,635
"1987",10,19,7,-6,-6,0,-5,496
"1988",10,19,8,-6,-6,0,-6,462
"1989",10,19,9,-6,-6,0,-7,480
"1990",10,19,10,-6,-6,0,-6,383
"1991",10,20,1,-1,-3,0,-1,680
"1992",10,20,2,-1,-3,1,-3,393
"1993",10,20,3,-1,-3,0,-2,455
"1994",10,20,4,-1,-3,0,-1,424
"1995",10,20,5,-1,-3,0,-1,399
"1996",10,20,6,-1,-3,0,-2,397
"1997",10,20,7,-1,-3,0,-1,431
"1998",10,20,8,-1,-3,0,-1,382
"1999",10,20,9,-1,-3,0,-2,392
"2000",10,20,10,-1,-3,0,0,398
"2001",11,1,1,-17,-1,1,0,1168
"2002",11,1,2,-17,-1,0,-16,616
"2003",11,1,3,-17,-1,1,-1,349
"2004",11,1,4,-17,-1,1,0,381
"2005",11,1,5,-17,-1,1,-1,382
"2006",11,1,6,-17,-1,1,0,358
"2007",11,1,7,-17,-1,0,-17,334
"2008",11,1,8,-17,-1,1,-1,294
"2009",11,1,9,-17,-1,1,-1,280
"2010",11,1,10,-17,-1,1,-1,320
"2011",11,2,1,-5,5,0,-5,817
"2012",11,2,2,-5,5,0,-4,375
"2013",11,2,3,-5,5,1,4,327
"2014",11,2,4,-5,5,1,4,358
"2015",11,2,5,-5,5,1,4,369
"2016",11,2,6,-5,5,1,5,390
"2017",11,2,7,-5,5,1,6,373
"2018",11,2,8,-5,5,1,5,398
"2019",11,2,9,-5,5,1,2,342
"2020",11,2,10,-5,5,1,6,353
"2021",11,3,1,-1,2,1,3,519
"2022",11,3,2,-1,2,1,3,336
"2023",11,3,3,-1,2,1,1,334
"2024",11,3,4,-1,2,1,0,369
"2025",11,3,5,-1,2,1,2,359
"2026",11,3,6,-1,2,1,1,317
"2027",11,3,7,-1,2,1,3,345
"2028",11,3,8,-1,2,1,3,343
"2029",11,3,9,-1,2,1,1,319
"2030",11,3,10,-1,2,1,1,337
"2031",11,4,1,4,17,1,17,392
"2032",11,4,2,4,17,1,16,385
"2033",11,4,3,4,17,1,16,381
"2034",11,4,4,4,17,1,18,359
"2035",11,4,5,4,17,1,17,382
"2036",11,4,6,4,17,1,18,377
"2037",11,4,7,4,17,1,15,366
"2038",11,4,8,4,17,1,17,361
"2039",11,4,9,4,17,1,14,381
"2040",11,4,10,4,17,1,15,381
"2041",11,5,1,3,3,1,2,761
"2042",11,5,2,3,3,1,3,289
"2043",11,5,3,3,3,1,3,297
"2044",11,5,4,3,3,1,4,369
"2045",11,5,5,3,3,1,3,495
"2046",11,5,6,3,3,1,2,383
"2047",11,5,7,3,3,1,3,335
"2048",11,5,8,3,3,1,4,328
"2049",11,5,9,3,3,1,3,335
"2050",11,5,10,3,3,1,2,339
"2051",11,6,1,1,6,1,5,553
"2052",11,6,2,1,6,1,5,344
"2053",11,6,3,1,6,1,6,294
"2054",11,6,4,1,6,1,8,335
"2055",11,6,5,1,6,1,6,351
"2056",11,6,6,1,6,1,6,295
"2057",11,6,7,1,6,1,7,322
"2058",11,6,8,1,6,1,4,317
"2059",11,6,9,1,6,1,6,337
"2060",11,6,10,1,6,1,6,302
"2061",11,7,1,-6,6,1,5,520
"2062",11,7,2,-6,6,1,6,279
"2063",11,7,3,-6,6,1,5,304
"2064",11,7,4,-6,6,1,6,281
"2065",11,7,5,-6,6,1,7,280
"2066",11,7,6,-6,6,1,7,286
"2067",11,7,7,-6,6,1,8,295
"2068",11,7,8,-6,6,1,7,262
"2069",11,7,9,-6,6,1,5,280
"2070",11,7,10,-6,6,1,8,271
"2071",11,8,1,10,2,1,0,577
"2072",11,8,2,10,2,1,2,339
"2073",11,8,3,10,2,1,2,311
"2074",11,8,4,10,2,1,2,263
"2075",11,8,5,10,2,1,2,254
"2076",11,8,6,10,2,0,9,661
"2077",11,8,7,10,2,0,10,360
"2078",11,8,8,10,2,0,11,347
"2079",11,8,9,10,2,0,10,1820
"2080",11,8,10,10,2,0,10,415
"2081",11,9,1,14,4,0,13,392
"2082",11,9,2,14,4,0,13,384
"2083",11,9,3,14,4,0,14,353
"2084",11,9,4,14,4,0,13,358
"2085",11,9,5,14,4,0,14,336
"2086",11,9,6,14,4,0,15,345
"2087",11,9,7,14,4,0,13,342
"2088",11,9,8,14,4,0,14,335
"2089",11,9,9,14,4,0,13,393
"2090",11,9,10,14,4,0,14,319
"2091",11,10,1,-1,-6,0,-1,385
"2092",11,10,2,-1,-6,1,-7,319
"2093",11,10,3,-1,-6,0,-1,368
"2094",11,10,4,-1,-6,0,-2,343
"2095",11,10,5,-1,-6,0,1,327
"2096",11,10,6,-1,-6,0,1,352
"2097",11,10,7,-1,-6,0,1,304
"2098",11,10,8,-1,-6,1,-4,319
"2099",11,10,9,-1,-6,0,0,344
"2100",11,10,10,-1,-6,0,1,328
"2101",11,11,1,-1,-17,1,-18,560
"2102",11,11,2,-1,-17,0,1,333
"2103",11,11,3,-1,-17,0,-1,327
"2104",11,11,4,-1,-17,1,-16,311
"2105",11,11,5,-1,-17,0,0,343
"2106",11,11,6,-1,-17,0,-2,270
"2107",11,11,7,-1,-17,0,0,271
"2108",11,11,8,-1,-17,0,-1,319
"2109",11,11,9,-1,-17,0,0,278
"2110",11,11,10,-1,-17,0,0,429
"2111",11,12,1,19,6,0,19,415
"2112",11,12,2,19,6,0,19,393
"2113",11,12,3,19,6,0,18,365
"2114",11,12,4,19,6,0,18,334
"2115",11,12,5,19,6,0,19,1159
"2116",11,12,6,19,6,0,19,465
"2117",11,12,7,19,6,0,19,597
"2118",11,12,8,19,6,0,21,766
"2119",11,12,9,19,6,0,18,431
"2120",11,12,10,19,6,0,17,326
"2121",11,13,1,10,-11,0,10,384
"2122",11,13,2,10,-11,0,10,349
"2123",11,13,3,10,-11,0,10,422
"2124",11,13,4,10,-11,0,10,433
"2125",11,13,5,10,-11,0,9,7254
"2126",11,13,6,10,-11,0,9,351
"2127",11,13,7,10,-11,0,9,521
"2128",11,13,8,10,-11,0,10,1897
"2129",11,13,9,10,-11,0,12,381
"2130",11,13,10,10,-11,0,9,367
"2131",11,14,1,-3,-7,0,-3,423
"2132",11,14,2,-3,-7,1,-6,351
"2133",11,14,3,-3,-7,0,-2,353
"2134",11,14,4,-3,-7,0,-2,400
"2135",11,14,5,-3,-7,1,-8,377
"2136",11,14,6,-3,-7,0,-2,369
"2137",11,14,7,-3,-7,0,-2,345
"2138",11,14,8,-3,-7,0,-3,342
"2139",11,14,9,-3,-7,1,-8,385
"2140",11,14,10,-3,-7,0,-2,342
"2141",11,15,1,-4,3,0,-6,385
"2142",11,15,2,-4,3,1,3,358
"2143",11,15,3,-4,3,1,1,327
"2144",11,15,4,-4,3,1,4,311
"2145",11,15,5,-4,3,1,1,302
"2146",11,15,6,-4,3,1,4,313
"2147",11,15,7,-4,3,1,4,302
"2148",11,15,8,-4,3,1,3,313
"2149",11,15,9,-4,3,1,3,321
"2150",11,15,10,-4,3,1,4,278
"2151",11,16,1,-1,-9,1,-9,863
"2152",11,16,2,-1,-9,0,-2,335
"2153",11,16,3,-1,-9,0,-1,337
"2154",11,16,4,-1,-9,1,-9,302
"2155",11,16,5,-1,-9,0,-2,351
"2156",11,16,6,-1,-9,0,-1,326
"2157",11,16,7,-1,-9,0,0,295
"2158",11,16,8,-1,-9,0,-2,302
"2159",11,16,9,-1,-9,0,-3,287
"2160",11,16,10,-1,-9,0,0,303
"2161",11,17,1,1,-2,0,1,361
"2162",11,17,2,1,-2,1,-3,329
"2163",11,17,3,1,-2,0,1,296
"2164",11,17,4,1,-2,1,-3,343
"2165",11,17,5,1,-2,0,0,337
"2166",11,17,6,1,-2,0,0,313
"2167",11,17,7,1,-2,1,0,334
"2168",11,17,8,1,-2,1,-1,321
"2169",11,17,9,1,-2,0,0,313
"2170",11,17,10,1,-2,0,0,303
"2171",11,18,1,13,9,1,10,544
"2172",11,18,2,13,9,0,14,407
"2173",11,18,3,13,9,1,9,498
"2174",11,18,4,13,9,0,12,377
"2175",11,18,5,13,9,0,15,390
"2176",11,18,6,13,9,0,13,398
"2177",11,18,7,13,9,1,10,392
"2178",11,18,8,13,9,0,13,358
"2179",11,18,9,13,9,0,12,373
"2180",11,18,10,13,9,0,13,406
"2181",11,19,1,1,-1,1,-1,496
"2182",11,19,2,1,-1,0,1,375
"2183",11,19,3,1,-1,1,-1,367
"2184",11,19,4,1,-1,0,1,343
"2185",11,19,5,1,-1,0,0,334
"2186",11,19,6,1,-1,0,-1,349
"2187",11,19,7,1,-1,1,-1,390
"2188",11,19,8,1,-1,1,-1,371
"2189",11,19,9,1,-1,0,3,310
"2190",11,19,10,1,-1,0,1,368
"2191",11,20,1,-12,-7,0,-11,560
"2192",11,20,2,-12,-7,1,-6,389
"2193",11,20,3,-12,-7,1,-7,320
"2194",11,20,4,-12,-7,0,-12,1542
"2195",11,20,5,-12,-7,1,-8,326
"2196",11,20,6,-12,-7,1,-6,303
"2197",11,20,7,-12,-7,1,-8,390
"2198",11,20,8,-12,-7,1,-6,350
"2199",11,20,9,-12,-7,1,-7,374
"2200",11,20,10,-12,-7,0,-11,319
"2201",12,1,1,-9,-5,0,-9,2193
"2202",12,1,2,-9,-5,1,-4,705
"2203",12,1,3,-9,-5,1,-5,676
"2204",12,1,4,-9,-5,0,-11,472
"2205",12,1,5,-9,-5,1,-5,488
"2206",12,1,6,-9,-5,1,-7,414
"2207",12,1,7,-9,-5,1,-6,433
"2208",12,1,8,-9,-5,1,-4,513
"2209",12,1,9,-9,-5,1,-7,456
"2210",12,1,10,-9,-5,1,-6,464
"2211",12,2,1,12,0,0,11,752
"2212",12,2,2,12,0,1,0,412
"2213",12,2,3,12,0,0,14,384
"2214",12,2,4,12,0,0,12,416
"2215",12,2,5,12,0,0,12,409
"2216",12,2,6,12,0,0,12,368
"2217",12,2,7,12,0,0,12,324
"2218",12,2,8,12,0,0,12,348
"2219",12,2,9,12,0,0,13,384
"2220",12,2,10,12,0,0,12,445
"2221",12,3,1,1,-10,0,-1,1224
"2222",12,3,2,1,-10,1,-11,364
"2223",12,3,3,1,-10,0,2,400
"2224",12,3,4,1,-10,0,2,416
"2225",12,3,5,1,-10,0,1,340
"2226",12,3,6,1,-10,0,4,336
"2227",12,3,7,1,-10,0,1,341
"2228",12,3,8,1,-10,0,0,340
"2229",12,3,9,1,-10,0,1,300
"2230",12,3,10,1,-10,0,0,357
"2231",12,4,1,3,4,0,2,749
"2232",12,4,2,3,4,1,4,276
"2233",12,4,3,3,4,1,3,352
"2234",12,4,4,3,4,1,2,384
"2235",12,4,5,3,4,0,3,402
"2236",12,4,6,3,4,0,4,301
"2237",12,4,7,3,4,0,2,336
"2238",12,4,8,3,4,1,3,469
"2239",12,4,9,3,4,1,4,457
"2240",12,4,10,3,4,1,4,524
"2241",12,5,1,2,4,0,1,957
"2242",12,5,2,2,4,1,2,312
"2243",12,5,3,2,4,1,4,316
"2244",12,5,4,2,4,0,2,356
"2245",12,5,5,2,4,1,6,328
"2246",12,5,6,2,4,1,5,324
"2247",12,5,7,2,4,1,5,308
"2248",12,5,8,2,4,1,2,328
"2249",12,5,9,2,4,1,4,368
"2250",12,5,10,2,4,1,3,352
"2251",12,6,1,8,0,0,9,741
"2252",12,6,2,8,0,1,0,312
"2253",12,6,3,8,0,0,9,404
"2254",12,6,4,8,0,0,9,341
"2255",12,6,5,8,0,0,9,312
"2256",12,6,6,8,0,0,9,337
"2257",12,6,7,8,0,0,8,296
"2258",12,6,8,8,0,0,7,348
"2259",12,6,9,8,0,0,7,348
"2260",12,6,10,8,0,0,8,312
"2261",12,7,1,5,-7,0,5,640
"2262",12,7,2,5,-7,1,-7,352
"2263",12,7,3,5,-7,0,5,348
"2264",12,7,4,5,-7,0,5,324
"2265",12,7,5,5,-7,0,6,344
"2266",12,7,6,5,-7,0,5,312
"2267",12,7,7,5,-7,0,4,308
"2268",12,7,8,5,-7,0,6,284
"2269",12,7,9,5,-7,0,7,332
"2270",12,7,10,5,-7,0,6,256
"2271",12,8,1,0,-1,0,1,513
"2272",12,8,2,0,-1,1,0,308
"2273",12,8,3,0,-1,0,2,370
"2274",12,8,4,0,-1,1,-1,296
"2275",12,8,5,0,-1,0,1,381
"2276",12,8,6,0,-1,0,2,408
"2277",12,8,7,0,-1,0,1,304
"2278",12,8,8,0,-1,0,-2,304
"2279",12,8,9,0,-1,0,0,393
"2280",12,8,10,0,-1,0,-2,320
"2281",12,9,1,-2,-10,1,-11,777
"2282",12,9,2,-2,-10,0,-2,412
"2283",12,9,3,-2,-10,0,-3,449
"2284",12,9,4,-2,-10,0,-4,664
"2285",12,9,5,-2,-10,0,-2,348
"2286",12,9,6,-2,-10,0,-2,388
"2287",12,9,7,-2,-10,0,-2,328
"2288",12,9,8,-2,-10,0,-3,380
"2289",12,9,9,-2,-10,0,-2,325
"2290",12,9,10,-2,-10,0,-1,452
"2291",12,10,1,1,-7,0,-1,568
"2292",12,10,2,1,-7,1,-7,408
"2293",12,10,3,1,-7,0,1,338
"2294",12,10,4,1,-7,0,1,300
"2295",12,10,5,1,-7,0,1,348
"2296",12,10,6,1,-7,0,1,376
"2297",12,10,7,1,-7,0,1,341
"2298",12,10,8,1,-7,0,0,309
"2299",12,10,9,1,-7,0,1,308
"2300",12,10,10,1,-7,0,1,312
"2301",12,11,1,3,3,0,1,524
"2302",12,11,2,3,3,1,5,357
"2303",12,11,3,3,3,1,3,300
"2304",12,11,4,3,3,1,3,296
"2305",12,11,5,3,3,1,3,264
"2306",12,11,6,3,3,1,3,244
"2307",12,11,7,3,3,1,2,260
"2308",12,11,8,3,3,1,4,220
"2309",12,11,9,3,3,1,5,220
"2310",12,11,10,3,3,1,5,204
"2311",12,12,1,-5,7,0,-5,648
"2312",12,12,2,-5,7,1,8,377
"2313",12,12,3,-5,7,1,7,325
"2314",12,12,4,-5,7,1,7,236
"2315",12,12,5,-5,7,1,7,228
"2316",12,12,6,-5,7,1,7,248
"2317",12,12,7,-5,7,1,7,224
"2318",12,12,8,-5,7,1,6,240
"2319",12,12,9,-5,7,1,7,268
"2320",12,12,10,-5,7,1,7,280
"2321",12,13,1,2,-3,1,-3,753
"2322",12,13,2,2,-3,0,2,285
"2323",12,13,3,2,-3,0,0,336
"2324",12,13,4,2,-3,0,1,264
"2325",12,13,5,2,-3,0,3,261
"2326",12,13,6,2,-3,0,2,296
"2327",12,13,7,2,-3,0,0,261
"2328",12,13,8,2,-3,0,1,276
"2329",12,13,9,2,-3,0,3,301
"2330",12,13,10,2,-3,0,3,244
"2331",12,14,1,4,-4,0,6,400
"2332",12,14,2,4,-4,1,-3,288
"2333",12,14,3,4,-4,0,3,300
"2334",12,14,4,4,-4,0,5,240
"2335",12,14,5,4,-4,0,4,240
"2336",12,14,6,4,-4,0,3,236
"2337",12,14,7,4,-4,0,6,268
"2338",12,14,8,4,-4,0,3,253
"2339",12,14,9,4,-4,0,4,228
"2340",12,14,10,4,-4,0,4,224
"2341",12,15,1,-5,14,0,-4,420
"2342",12,15,2,-5,14,1,16,300
"2343",12,15,3,-5,14,1,15,296
"2344",12,15,4,-5,14,1,13,208
"2345",12,15,5,-5,14,1,15,244
"2346",12,15,6,-5,14,1,15,248
"2347",12,15,7,-5,14,1,15,220
"2348",12,15,8,-5,14,1,15,220
"2349",12,15,9,-5,14,1,15,248
"2350",12,15,10,-5,14,1,16,252
"2351",12,16,1,-4,6,1,7,645
"2352",12,16,2,-4,6,0,-4,293
"2353",12,16,3,-4,6,1,7,324
"2354",12,16,4,-4,6,1,6,253
"2355",12,16,5,-4,6,1,7,216
"2356",12,16,6,-4,6,1,5,232
"2357",12,16,7,-4,6,1,5,232
"2358",12,16,8,-4,6,1,5,232
"2359",12,16,9,-4,6,1,5,244
"2360",12,16,10,-4,6,1,6,244
"2361",12,17,1,-11,17,1,18,1092
"2362",12,17,2,-11,17,0,-11,292
"2363",12,17,3,-11,17,1,15,296
"2364",12,17,4,-11,17,1,19,225
"2365",12,17,5,-11,17,1,17,256
"2366",12,17,6,-11,17,1,16,233
"2367",12,17,7,-11,17,1,17,268
"2368",12,17,8,-11,17,1,16,224
"2369",12,17,9,-11,17,1,17,252
"2370",12,17,10,-11,17,1,15,228
"2371",12,18,1,1,4,1,4,678
"2372",12,18,2,1,4,0,1,292
"2373",12,18,3,1,4,1,3,332
"2374",12,18,4,1,4,1,4,425
"2375",12,18,5,1,4,1,3,432
"2376",12,18,6,1,4,0,1,436
"2377",12,18,7,1,4,1,5,309
"2378",12,18,8,1,4,1,4,236
"2379",12,18,9,1,4,1,4,220
"2380",12,18,10,1,4,1,5,228
"2381",12,19,1,1,-10,1,-10,700
"2382",12,19,2,1,-10,0,2,332
"2383",12,19,3,1,-10,0,1,276
"2384",12,19,4,1,-10,0,1,216
"2385",12,19,5,1,-10,0,1,232
"2386",12,19,6,1,-10,0,1,248
"2387",12,19,7,1,-10,0,0,228
"2388",12,19,8,1,-10,0,2,216
"2389",12,19,9,1,-10,0,1,248
"2390",12,19,10,1,-10,0,1,256
"2391",12,20,1,9,-6,0,9,456
"2392",12,20,2,9,-6,1,-5,268
"2393",12,20,3,9,-6,0,10,296
"2394",12,20,4,9,-6,0,10,208
"2395",12,20,5,9,-6,0,10,208
"2396",12,20,6,9,-6,0,7,240
"2397",12,20,7,9,-6,0,8,224
"2398",12,20,8,9,-6,0,10,200
"2399",12,20,9,9,-6,0,10,388
"2400",12,20,10,9,-6,0,11,297
"2401",13,1,1,8,-2,1,0,1018
"2402",13,1,2,8,-2,0,7,1077
"2403",13,1,3,8,-2,0,9,460
"2404",13,1,4,8,-2,0,8,492
"2405",13,1,5,8,-2,0,6,391
"2406",13,1,6,8,-2,0,8,351
"2407",13,1,7,8,-2,0,8,387
"2408",13,1,8,8,-2,0,7,345
"2409",13,1,9,8,-2,0,8,434
"2410",13,1,10,8,-2,0,7,366
"2411",13,2,1,-7,7,1,5,1109
"2412",13,2,2,-7,7,0,-7,412
"2413",13,2,3,-7,7,1,8,294
"2414",13,2,4,-7,7,1,7,254
"2415",13,2,5,-7,7,1,8,281
"2416",13,2,6,-7,7,1,8,317
"2417",13,2,7,-7,7,1,7,309
"2418",13,2,8,-7,7,1,7,277
"2419",13,2,9,-7,7,1,7,350
"2420",13,2,10,-7,7,1,7,285
"2421",13,3,1,5,-3,1,-3,766
"2422",13,3,2,5,-3,0,5,344
"2423",13,3,3,5,-3,0,7,287
"2424",13,3,4,5,-3,0,5,374
"2425",13,3,5,5,-3,0,4,397
"2426",13,3,6,5,-3,0,6,367
"2427",13,3,7,5,-3,0,4,375
"2428",13,3,8,5,-3,0,5,342
"2429",13,3,9,5,-3,0,5,381
"2430",13,3,10,5,-3,0,4,399
"2431",13,4,1,0,3,1,3,806
"2432",13,4,2,0,3,0,1,406
"2433",13,4,3,0,3,1,4,273
"2434",13,4,4,0,3,0,0,407
"2435",13,4,5,0,3,1,2,285
"2436",13,4,6,0,3,1,2,259
"2437",13,4,7,0,3,1,3,135
"2438",13,4,8,0,3,1,2,497
"2439",13,4,9,0,3,0,-2,977
"2440",13,4,10,0,3,1,4,285
"2441",13,5,1,5,-8,1,-9,743
"2442",13,5,2,5,-8,0,6,349
"2443",13,5,3,5,-8,0,7,575
"2444",13,5,4,5,-8,0,4,337
"2445",13,5,5,5,-8,0,4,368
"2446",13,5,6,5,-8,0,4,359
"2447",13,5,7,5,-8,0,4,366
"2448",13,5,8,5,-8,0,6,356
"2449",13,5,9,5,-8,0,4,413
"2450",13,5,10,5,-8,0,6,361
"2451",13,6,1,9,7,0,8,697
"2452",13,6,2,9,7,1,6,291
"2453",13,6,3,9,7,0,10,347
"2454",13,6,4,9,7,1,7,461
"2455",13,6,5,9,7,0,9,342
"2456",13,6,6,9,7,0,10,286
"2457",13,6,7,9,7,0,10,339
"2458",13,6,8,9,7,0,9,383
"2459",13,6,9,9,7,0,7,333
"2460",13,6,10,9,7,0,11,390
"2461",13,7,1,-10,5,0,-9,532
"2462",13,7,2,-10,5,1,5,513
"2463",13,7,3,-10,5,1,5,347
"2464",13,7,4,-10,5,1,4,289
"2465",13,7,5,-10,5,1,6,350
"2466",13,7,6,-10,5,0,-10,317
"2467",13,7,7,-10,5,1,5,269
"2468",13,7,8,-10,5,1,6,367
"2469",13,7,9,-10,5,1,3,357
"2470",13,7,10,-10,5,1,5,350
"2471",13,8,1,29,-9,1,-10,496
"2472",13,8,2,29,-9,0,30,317
"2473",13,8,3,29,-9,0,28,349
"2474",13,8,4,29,-9,0,28,301
"2475",13,8,5,29,-9,0,28,332
"2476",13,8,6,29,-9,0,30,302
"2477",13,8,7,29,-9,0,29,235
"2478",13,8,8,29,-9,0,29,319
"2479",13,8,9,29,-9,0,30,312
"2480",13,8,10,29,-9,0,30,342
"2481",13,9,1,8,0,0,9,638
"2482",13,9,2,8,0,1,1,596
"2483",13,9,3,8,0,0,8,466
"2484",13,9,4,8,0,0,7,523
"2485",13,9,5,8,0,0,10,333
"2486",13,9,6,8,0,0,6,317
"2487",13,9,7,8,0,0,8,307
"2488",13,9,8,8,0,0,8,333
"2489",13,9,9,8,0,0,9,332
"2490",13,9,10,8,0,0,10,359
"2491",13,10,1,-4,-7,0,-4,691
"2492",13,10,2,-4,-7,1,-6,299
"2493",13,10,3,-4,-7,0,-4,303
"2494",13,10,4,-4,-7,1,-10,341
"2495",13,10,5,-4,-7,0,-4,318
"2496",13,10,6,-4,-7,0,-4,276
"2497",13,10,7,-4,-7,0,-6,375
"2498",13,10,8,-4,-7,0,-4,341
"2499",13,10,9,-4,-7,0,-4,409
"2500",13,10,10,-4,-7,0,-3,326
"2501",13,11,1,1,1,0,1,469
"2502",13,11,2,1,1,1,1,375
"2503",13,11,3,1,1,0,1,350
"2504",13,11,4,1,1,1,3,847
"2505",13,11,5,1,1,1,0,365
"2506",13,11,6,1,1,0,3,398
"2507",13,11,7,1,1,0,2,357
"2508",13,11,8,1,1,0,0,320
"2509",13,11,9,1,1,1,2,373
"2510",13,11,10,1,1,1,2,349
"2511",13,12,1,13,-2,0,12,615
"2512",13,12,2,13,-2,1,-2,366
"2513",13,12,3,13,-2,0,12,302
"2514",13,12,4,13,-2,1,-4,326
"2515",13,12,5,13,-2,0,12,292
"2516",13,12,6,13,-2,0,14,387
"2517",13,12,7,13,-2,0,14,323
"2518",13,12,8,13,-2,0,14,302
"2519",13,12,9,13,-2,0,13,337
"2520",13,12,10,13,-2,0,13,334
"2521",13,13,1,-1,-9,0,-2,598
"2522",13,13,2,-1,-9,1,-8,292
"2523",13,13,3,-1,-9,0,0,457
"2524",13,13,4,-1,-9,1,-10,635
"2525",13,13,5,-1,-9,0,1,279
"2526",13,13,6,-1,-9,0,-1,268
"2527",13,13,7,-1,-9,0,0,310
"2528",13,13,8,-1,-9,0,-1,305
"2529",13,13,9,-1,-9,0,0,300
"2530",13,13,10,-1,-9,0,-2,342
"2531",13,14,1,21,7,1,7,3421
"2532",13,14,2,21,7,0,22,414
"2533",13,14,3,21,7,0,22,278
"2534",13,14,4,21,7,0,22,282
"2535",13,14,5,21,7,0,20,487
"2536",13,14,6,21,7,0,21,301
"2537",13,14,7,21,7,0,22,690
"2538",13,14,8,21,7,0,19,341
"2539",13,14,9,21,7,0,21,339
"2540",13,14,10,21,7,0,21,284
"2541",13,15,1,-7,0,0,-6,419
"2542",13,15,2,-7,0,1,-1,307
"2543",13,15,3,-7,0,0,-6,334
"2544",13,15,4,-7,0,1,-2,295
"2545",13,15,5,-7,0,1,1,276
"2546",13,15,6,-7,0,1,0,338
"2547",13,15,7,-7,0,1,0,285
"2548",13,15,8,-7,0,1,0,332
"2549",13,15,9,-7,0,1,-1,311
"2550",13,15,10,-7,0,1,-1,318
"2551",13,16,1,-11,-3,1,-2,438
"2552",13,16,2,-11,-3,0,-12,310
"2553",13,16,3,-11,-3,1,-2,395
"2554",13,16,4,-11,-3,1,-5,317
"2555",13,16,5,-11,-3,1,-3,387
"2556",13,16,6,-11,-3,1,-4,281
"2557",13,16,7,-11,-3,1,-3,308
"2558",13,16,8,-11,-3,1,-1,270
"2559",13,16,9,-11,-3,1,-3,340
"2560",13,16,10,-11,-3,1,-2,310
"2561",13,17,1,7,1,1,1,471
"2562",13,17,2,7,1,0,8,295
"2563",13,17,3,7,1,0,6,277
"2564",13,17,4,7,1,0,8,381
"2565",13,17,5,7,1,0,8,335
"2566",13,17,6,7,1,0,8,332
"2567",13,17,7,7,1,0,7,332
"2568",13,17,8,7,1,0,7,284
"2569",13,17,9,7,1,0,7,335
"2570",13,17,10,7,1,0,8,332
"2571",13,18,1,-14,1,1,3,1621
"2572",13,18,2,-14,1,0,-15,476
"2573",13,18,3,-14,1,1,1,303
"2574",13,18,4,-14,1,1,1,295
"2575",13,18,5,-14,1,1,2,316
"2576",13,18,6,-14,1,1,0,300
"2577",13,18,7,-14,1,1,3,402
"2578",13,18,8,-14,1,1,0,372
"2579",13,18,9,-14,1,0,-14,353
"2580",13,18,10,-14,1,1,3,291
"2581",13,19,1,-3,-6,1,-6,470
"2582",13,19,2,-3,-6,0,-1,337
"2583",13,19,3,-3,-6,0,-1,645
"2584",13,19,4,-3,-6,1,-6,334
"2585",13,19,5,-3,-6,0,-4,339
"2586",13,19,6,-3,-6,0,-5,365
"2587",13,19,7,-3,-6,0,-3,348
"2588",13,19,8,-3,-6,0,-1,324
"2589",13,19,9,-3,-6,0,-1,380
"2590",13,19,10,-3,-6,0,-2,353
"2591",13,20,1,-5,-4,0,-6,437
"2592",13,20,2,-5,-4,1,-5,288
"2593",13,20,3,-5,-4,0,-5,445
"2594",13,20,4,-5,-4,1,-4,352
"2595",13,20,5,-5,-4,0,-4,429
"2596",13,20,6,-5,-4,1,-3,375
"2597",13,20,7,-5,-4,1,-3,350
"2598",13,20,8,-5,-4,1,-4,382
"2599",13,20,9,-5,-4,1,-3,365
"2600",13,20,10,-5,-4,1,-2,359
"2601",14,1,1,1,-22,0,3,1182
"2602",14,1,2,1,-22,0,3,601
"2603",14,1,3,1,-22,1,-23,432
"2604",14,1,4,1,-22,0,1,423
"2605",14,1,5,1,-22,0,2,307
"2606",14,1,6,1,-22,0,2,311
"2607",14,1,7,1,-22,0,0,314
"2608",14,1,8,1,-22,0,1,472
"2609",14,1,9,1,-22,0,1,319
"2610",14,1,10,1,-22,0,1,292
"2611",14,2,1,-2,7,0,-3,590
"2612",14,2,2,-2,7,1,6,424
"2613",14,2,3,-2,7,1,5,319
"2614",14,2,4,-2,7,1,7,334
"2615",14,2,5,-2,7,1,8,391
"2616",14,2,6,-2,7,1,6,387
"2617",14,2,7,-2,7,1,7,367
"2618",14,2,8,-2,7,1,6,348
"2619",14,2,9,-2,7,1,8,361
"2620",14,2,10,-2,7,1,7,402
"2621",14,3,1,0,11,1,13,782
"2622",14,3,2,0,11,1,11,279
"2623",14,3,3,0,11,1,10,312
"2624",14,3,4,0,11,1,12,312
"2625",14,3,5,0,11,1,10,341
"2626",14,3,6,0,11,1,11,330
"2627",14,3,7,0,11,1,11,319
"2628",14,3,8,0,11,1,9,319
"2629",14,3,9,0,11,1,11,352
"2630",14,3,10,0,11,1,12,350
"2631",14,4,1,8,3,1,3,656
"2632",14,4,2,8,3,0,8,440
"2633",14,4,3,8,3,0,7,321
"2634",14,4,4,8,3,0,7,383
"2635",14,4,5,8,3,0,9,355
"2636",14,4,6,8,3,0,9,356
"2637",14,4,7,8,3,0,8,330
"2638",14,4,8,8,3,0,9,424
"2639",14,4,9,8,3,0,9,383
"2640",14,4,10,8,3,0,8,361
"2641",14,5,1,-13,9,1,8,778
"2642",14,5,2,-13,9,1,9,388
"2643",14,5,3,-13,9,1,10,455
"2644",14,5,4,-13,9,1,9,402
"2645",14,5,5,-13,9,1,11,368
"2646",14,5,6,-13,9,1,9,358
"2647",14,5,7,-13,9,1,10,347
"2648",14,5,8,-13,9,1,8,360
"2649",14,5,9,-13,9,1,8,366
"2650",14,5,10,-13,9,1,9,343
"2651",14,6,1,-17,7,1,8,372
"2652",14,6,2,-17,7,0,-17,356
"2653",14,6,3,-17,7,1,6,372
"2654",14,6,4,-17,7,1,7,261
"2655",14,6,5,-17,7,1,5,322
"2656",14,6,6,-17,7,1,6,284
"2657",14,6,7,-17,7,1,5,357
"2658",14,6,8,-17,7,1,7,313
"2659",14,6,9,-17,7,1,7,329
"2660",14,6,10,-17,7,1,7,349
"2661",14,7,1,-6,-8,0,-6,956
"2662",14,7,2,-6,-8,1,-9,347
"2663",14,7,3,-6,-8,0,-6,489
"2664",14,7,4,-6,-8,0,-7,381
"2665",14,7,5,-6,-8,1,-8,320
"2666",14,7,6,-6,-8,0,-5,364
"2667",14,7,7,-6,-8,1,-10,329
"2668",14,7,8,-6,-8,0,-6,362
"2669",14,7,9,-6,-8,0,-6,312
"2670",14,7,10,-6,-8,0,-6,348
"2671",14,8,1,3,3,1,3,442
"2672",14,8,2,3,3,0,3,335
"2673",14,8,3,3,3,1,3,388
"2674",14,8,4,3,3,0,4,363
"2675",14,8,5,3,3,1,3,342
"2676",14,8,6,3,3,0,4,357
"2677",14,8,7,3,3,0,4,349
"2678",14,8,8,3,3,0,3,379
"2679",14,8,9,3,3,0,2,431
"2680",14,8,10,3,3,0,3,418
"2681",14,9,1,-3,-7,1,-6,543
"2682",14,9,2,-3,-7,0,-3,383
"2683",14,9,3,-3,-7,0,-3,367
"2684",14,9,4,-3,-7,1,-8,460
"2685",14,9,5,-3,-7,0,-2,435
"2686",14,9,6,-3,-7,1,-7,403
"2687",14,9,7,-3,-7,0,-2,455
"2688",14,9,8,-3,-7,0,-3,483
"2689",14,9,9,-3,-7,0,-2,360
"2690",14,9,10,-3,-7,0,-1,345
"2691",14,10,1,1,7,0,1,558
"2692",14,10,2,1,7,1,7,363
"2693",14,10,3,1,7,0,1,402
"2694",14,10,4,1,7,1,8,373
"2695",14,10,5,1,7,1,7,367
"2696",14,10,6,1,7,1,7,377
"2697",14,10,7,1,7,1,8,405
"2698",14,10,8,1,7,1,7,389
"2699",14,10,9,1,7,1,7,398
"2700",14,10,10,1,7,1,10,378
"2701",14,11,1,-5,1,1,1,688
"2702",14,11,2,-5,1,0,-5,511
"2703",14,11,3,-5,1,0,-5,398
"2704",14,11,4,-5,1,1,0,371
"2705",14,11,5,-5,1,1,0,411
"2706",14,11,6,-5,1,1,1,297
"2707",14,11,7,-5,1,1,3,335
"2708",14,11,8,-5,1,1,1,307
"2709",14,11,9,-5,1,1,2,301
"2710",14,11,10,-5,1,1,0,316
"2711",14,12,1,2,15,1,16,361
"2712",14,12,2,2,15,1,17,297
"2713",14,12,3,2,15,1,13,343
"2714",14,12,4,2,15,1,15,346
"2715",14,12,5,2,15,1,16,373
"2716",14,12,6,2,15,1,15,361
"2717",14,12,7,2,15,1,16,369
"2718",14,12,8,2,15,1,13,421
"2719",14,12,9,2,15,1,15,380
"2720",14,12,10,2,15,1,15,427
"2721",14,13,1,-2,8,1,9,398
"2722",14,13,2,-2,8,1,7,357
"2723",14,13,3,-2,8,1,8,403
"2724",14,13,4,-2,8,1,8,394
"2725",14,13,5,-2,8,1,7,289
"2726",14,13,6,-2,8,1,7,327
"2727",14,13,7,-2,8,1,7,367
"2728",14,13,8,-2,8,1,8,408
"2729",14,13,9,-2,8,1,8,387
"2730",14,13,10,-2,8,1,8,399
"2731",14,14,1,6,7,1,6,700
"2732",14,14,2,6,7,1,7,379
"2733",14,14,3,6,7,1,5,378
"2734",14,14,4,6,7,1,7,358
"2735",14,14,5,6,7,1,8,365
"2736",14,14,6,6,7,1,6,364
"2737",14,14,7,6,7,1,6,379
"2738",14,14,8,6,7,1,8,355
"2739",14,14,9,6,7,1,7,359
"2740",14,14,10,6,7,1,7,367
"2741",14,15,1,-1,1,1,-1,394
"2742",14,15,2,-1,1,0,-1,450
"2743",14,15,3,-1,1,1,0,382
"2744",14,15,4,-1,1,1,1,386
"2745",14,15,5,-1,1,1,1,343
"2746",14,15,6,-1,1,1,2,354
"2747",14,15,7,-1,1,1,4,326
"2748",14,15,8,-1,1,1,2,297
"2749",14,15,9,-1,1,1,0,298
"2750",14,15,10,-1,1,1,1,292
"2751",14,16,1,0,-4,1,-3,402
"2752",14,16,2,0,-4,0,0,411
"2753",14,16,3,0,-4,0,0,345
"2754",14,16,4,0,-4,0,-2,327
"2755",14,16,5,0,-4,0,0,787
"2756",14,16,6,0,-4,0,2,408
"2757",14,16,7,0,-4,0,2,475
"2758",14,16,8,0,-4,0,0,349
"2759",14,16,9,0,-4,0,1,353
"2760",14,16,10,0,-4,0,1,367
"2761",14,17,1,-6,-7,1,-6,427
"2762",14,17,2,-6,-7,0,-7,388
"2763",14,17,3,-6,-7,1,-9,373
"2764",14,17,4,-6,-7,0,-6,392
"2765",14,17,5,-6,-7,1,-6,371
"2766",14,17,6,-6,-7,0,-5,380
"2767",14,17,7,-6,-7,1,-8,363
"2768",14,17,8,-6,-7,0,-5,397
"2769",14,17,9,-6,-7,1,-7,380
"2770",14,17,10,-6,-7,0,-6,403
"2771",14,18,1,4,6,1,5,379
"2772",14,18,2,4,6,1,5,368
"2773",14,18,3,4,6,1,6,344
"2774",14,18,4,4,6,1,6,386
"2775",14,18,5,4,6,1,5,382
"2776",14,18,6,4,6,1,5,364
"2777",14,18,7,4,6,1,5,367
"2778",14,18,8,4,6,1,5,345
"2779",14,18,9,4,6,1,7,357
"2780",14,18,10,4,6,1,7,394
"2781",14,19,1,-4,0,1,0,341
"2782",14,19,2,-4,0,1,0,458
"2783",14,19,3,-4,0,1,0,365
"2784",14,19,4,-4,0,1,1,348
"2785",14,19,5,-4,0,1,1,348
"2786",14,19,6,-4,0,1,0,332
"2787",14,19,7,-4,0,1,-1,331
"2788",14,19,8,-4,0,1,2,520
"2789",14,19,9,-4,0,1,-1,389
"2790",14,19,10,-4,0,1,0,478
"2791",14,20,1,3,7,1,8,733
"2792",14,20,2,3,7,1,8,304
"2793",14,20,3,3,7,1,6,489
"2794",14,20,4,3,7,1,8,326
"2795",14,20,5,3,7,0,2,564
"2796",14,20,6,3,7,1,7,355
"2797",14,20,7,3,7,1,8,369
"2798",14,20,8,3,7,0,3,496
"2799",14,20,9,3,7,1,7,366
"2800",14,20,10,3,7,1,5,413
"2801",15,1,1,20,4,0,20,1289
"2802",15,1,2,20,4,1,3,1174
"2803",15,1,3,20,4,0,20,1166
"2804",15,1,4,20,4,0,21,488
"2805",15,1,5,20,4,0,19,886
"2806",15,1,6,20,4,0,18,567
"2807",15,1,7,20,4,0,19,456
"2808",15,1,8,20,4,0,20,711
"2809",15,1,9,20,4,0,20,519
"2810",15,1,10,20,4,0,20,480
"2811",15,2,1,11,-9,0,12,1064
"2812",15,2,2,11,-9,1,-11,455
"2813",15,2,3,11,-9,0,12,375
"2814",15,2,4,11,-9,0,10,525
"2815",15,2,5,11,-9,0,11,407
"2816",15,2,6,11,-9,0,13,464
"2817",15,2,7,11,-9,0,10,408
"2818",15,2,8,11,-9,0,11,495
"2819",15,2,9,11,-9,0,12,471
"2820",15,2,10,11,-9,0,10,423
"2821",15,3,1,9,5,0,11,849
"2822",15,3,2,9,5,1,6,449
"2823",15,3,3,9,5,0,8,438
"2824",15,3,4,9,5,1,7,462
"2825",15,3,5,9,5,0,8,414
"2826",15,3,6,9,5,1,4,440
"2827",15,3,7,9,5,0,9,414
"2828",15,3,8,9,5,0,9,457
"2829",15,3,9,9,5,0,8,428
"2830",15,3,10,9,5,0,10,439
"2831",15,4,1,-4,4,0,-5,703
"2832",15,4,2,-4,4,1,5,480
"2833",15,4,3,-4,4,1,3,454
"2834",15,4,4,-4,4,1,4,406
"2835",15,4,5,-4,4,1,3,430
"2836",15,4,6,-4,4,1,3,496
"2837",15,4,7,-4,4,1,4,441
"2838",15,4,8,-4,4,1,5,432
"2839",15,4,9,-4,4,1,2,449
"2840",15,4,10,-4,4,1,6,431
"2841",15,5,1,-2,23,0,-2,983
"2842",15,5,2,-2,23,1,23,440
"2843",15,5,3,-2,23,1,22,560
"2844",15,5,4,-2,23,1,23,471
"2845",15,5,5,-2,23,1,23,448
"2846",15,5,6,-2,23,1,22,447
"2847",15,5,7,-2,23,1,23,385
"2848",15,5,8,-2,23,1,21,562
"2849",15,5,9,-2,23,1,23,479
"2850",15,5,10,-2,23,1,22,481
"2851",15,6,1,1,11,0,0,901
"2852",15,6,2,1,11,1,11,408
"2853",15,6,3,1,11,1,10,416
"2854",15,6,4,1,11,1,11,471
"2855",15,6,5,1,11,1,10,415
"2856",15,6,6,1,11,1,11,369
"2857",15,6,7,1,11,1,11,560
"2858",15,6,8,1,11,1,13,408
"2859",15,6,9,1,11,1,10,408
"2860",15,6,10,1,11,1,10,416
"2861",15,7,1,8,13,0,7,896
"2862",15,7,2,8,13,1,14,407
"2863",15,7,3,8,13,1,13,784
"2864",15,7,4,8,13,1,13,425
"2865",15,7,5,8,13,1,12,424
"2866",15,7,6,8,13,1,12,431
"2867",15,7,7,8,13,1,14,429
"2868",15,7,8,8,13,1,13,415
"2869",15,7,9,8,13,1,13,360
"2870",15,7,10,8,13,1,13,400
"2871",15,8,1,-3,-9,0,-2,1070
"2872",15,8,2,-3,-9,1,-11,349
"2873",15,8,3,-3,-9,0,-4,384
"2874",15,8,4,-3,-9,1,-9,400
"2875",15,8,5,-3,-9,0,-2,375
"2876",15,8,6,-3,-9,0,-3,398
"2877",15,8,7,-3,-9,0,-2,375
"2878",15,8,8,-3,-9,0,-4,376
"2879",15,8,9,-3,-9,0,-3,393
"2880",15,8,10,-3,-9,0,-3,360
"2881",15,9,1,-2,-5,0,-3,610
"2882",15,9,2,-2,-5,1,-5,368
"2883",15,9,3,-2,-5,0,-3,376
"2884",15,9,4,-2,-5,1,-5,392
"2885",15,9,5,-2,-5,0,-2,384
"2886",15,9,6,-2,-5,0,-2,319
"2887",15,9,7,-2,-5,0,-4,302
"2888",15,9,8,-2,-5,0,-1,336
"2889",15,9,9,-2,-5,0,-4,350
"2890",15,9,10,-2,-5,0,-1,341
"2891",15,10,1,1,-6,0,0,656
"2892",15,10,2,1,-6,1,-6,897
"2893",15,10,3,1,-6,0,1,382
"2894",15,10,4,1,-6,1,-8,406
"2895",15,10,5,1,-6,0,1,391
"2896",15,10,6,1,-6,0,1,335
"2897",15,10,7,1,-6,0,0,344
"2898",15,10,8,1,-6,0,2,400
"2899",15,10,9,1,-6,0,0,871
"2900",15,10,10,1,-6,0,1,439
"2901",15,11,1,-1,8,0,-1,960
"2902",15,11,2,-1,8,1,7,423
"2903",15,11,3,-1,8,1,9,367
"2904",15,11,4,-1,8,1,9,385
"2905",15,11,5,-1,8,1,9,368
"2906",15,11,6,-1,8,1,8,400
"2907",15,11,7,-1,8,1,8,374
"2908",15,11,8,-1,8,1,7,361
"2909",15,11,9,-1,8,1,8,365
"2910",15,11,10,-1,8,1,7,391
"2911",15,12,1,16,-2,0,16,1264
"2912",15,12,2,16,-2,1,-1,641
"2913",15,12,3,16,-2,0,17,361
"2914",15,12,4,16,-2,0,15,361
"2915",15,12,5,16,-2,0,16,392
"2916",15,12,6,16,-2,0,16,383
"2917",15,12,7,16,-2,0,16,326
"2918",15,12,8,16,-2,0,16,360
"2919",15,12,9,16,-2,0,16,366
"2920",15,12,10,16,-2,0,17,392
"2921",15,13,1,12,-8,0,12,640
"2922",15,13,2,12,-8,0,12,560
"2923",15,13,3,12,-8,0,11,416
"2924",15,13,4,12,-8,0,13,368
"2925",15,13,5,12,-8,0,11,368
"2926",15,13,6,12,-8,0,13,385
"2927",15,13,7,12,-8,0,13,417
"2928",15,13,8,12,-8,0,12,390
"2929",15,13,9,12,-8,0,14,359
"2930",15,13,10,12,-8,0,11,399
"2931",15,14,1,14,1,0,15,641
"2932",15,14,2,14,1,0,14,353
"2933",15,14,3,14,1,0,14,385
"2934",15,14,4,14,1,0,13,448
"2935",15,14,5,14,1,0,16,398
"2936",15,14,6,14,1,0,14,455
"2937",15,14,7,14,1,0,13,424
"2938",15,14,8,14,1,0,16,607
"2939",15,14,9,14,1,0,15,384
"2940",15,14,10,14,1,0,13,447
"2941",15,15,1,5,1,0,5,976
"2942",15,15,2,5,1,1,2,335
"2943",15,15,3,5,1,0,5,366
"2944",15,15,4,5,1,0,6,430
"2945",15,15,5,5,1,0,7,408
"2946",15,15,6,5,1,0,5,415
"2947",15,15,7,5,1,0,7,495
"2948",15,15,8,5,1,0,6,689
"2949",15,15,9,5,1,0,4,407
"2950",15,15,10,5,1,0,6,392
"2951",15,16,1,1,-2,0,1,591
"2952",15,16,2,1,-2,1,-2,383
"2953",15,16,3,1,-2,0,1,337
"2954",15,16,4,1,-2,0,0,320
"2955",15,16,5,1,-2,0,1,336
"2956",15,16,6,1,-2,0,-1,353
"2957",15,16,7,1,-2,0,2,399
"2958",15,16,8,1,-2,0,1,361
"2959",15,16,9,1,-2,0,2,344
"2960",15,16,10,1,-2,0,0,351
"2961",15,17,1,-2,14,0,-2,536
"2962",15,17,2,-2,14,1,13,368
"2963",15,17,3,-2,14,1,14,351
"2964",15,17,4,-2,14,1,14,350
"2965",15,17,5,-2,14,1,14,328
"2966",15,17,6,-2,14,1,14,352
"2967",15,17,7,-2,14,1,13,392
"2968",15,17,8,-2,14,1,13,368
"2969",15,17,9,-2,14,1,12,360
"2970",15,17,10,-2,14,1,12,351
"2971",15,18,1,2,5,0,2,727
"2972",15,18,2,2,5,1,5,344
"2973",15,18,3,2,5,1,6,392
"2974",15,18,4,2,5,1,4,385
"2975",15,18,5,2,5,1,7,448
"2976",15,18,6,2,5,1,6,416
"2977",15,18,7,2,5,1,4,384
"2978",15,18,8,2,5,1,5,448
"2979",15,18,9,2,5,0,0,352
"2980",15,18,10,2,5,1,7,384
"2981",15,19,1,-7,1,0,-5,617
"2982",15,19,2,-7,1,1,4,336
"2983",15,19,3,-7,1,1,1,320
"2984",15,19,4,-7,1,1,2,319
"2985",15,19,5,-7,1,1,0,336
"2986",15,19,6,-7,1,1,1,328
"2987",15,19,7,-7,1,1,0,359
"2988",15,19,8,-7,1,1,2,359
"2989",15,19,9,-7,1,1,0,337
"2990",15,19,10,-7,1,1,1,310
"2991",15,20,1,-4,-4,0,-3,744
"2992",15,20,2,-4,-4,1,-5,344
"2993",15,20,3,-4,-4,0,-2,431
"2994",15,20,4,-4,-4,1,-4,359
"2995",15,20,5,-4,-4,0,-5,320
"2996",15,20,6,-4,-4,0,-3,321
"2997",15,20,7,-4,-4,0,-3,295
"2998",15,20,8,-4,-4,0,-4,328
"2999",15,20,9,-4,-4,0,-4,335
"3000",15,20,10,-4,-4,0,-4,345
"3001",16,1,1,-3,-22,0,-3,909
"3002",16,1,2,-3,-22,1,-23,387
"3003",16,1,3,-3,-22,0,-3,347
"3004",16,1,4,-3,-22,0,-3,269
"3005",16,1,5,-3,-22,1,-21,296
"3006",16,1,6,-3,-22,0,-4,248
"3007",16,1,7,-3,-22,0,-3,267
"3008",16,1,8,-3,-22,0,-5,220
"3009",16,1,9,-3,-22,1,-23,271
"3010",16,1,10,-3,-22,0,-3,247
"3011",16,2,1,0,1,0,1,521
"3012",16,2,2,0,1,1,1,237
"3013",16,2,3,0,1,1,3,243
"3014",16,2,4,0,1,1,1,207
"3015",16,2,5,0,1,1,2,253
"3016",16,2,6,0,1,0,1,297
"3017",16,2,7,0,1,0,0,201
"3018",16,2,8,0,1,1,3,278
"3019",16,2,9,0,1,1,2,236
"3020",16,2,10,0,1,1,1,229
"3021",16,3,1,-8,0,0,-7,571
"3022",16,3,2,-8,0,1,2,328
"3023",16,3,3,-8,0,1,2,260
"3024",16,3,4,-8,0,1,-1,269
"3025",16,3,5,-8,0,1,-1,263
"3026",16,3,6,-8,0,0,-8,279
"3027",16,3,7,-8,0,1,2,217
"3028",16,3,8,-8,0,1,0,279
"3029",16,3,9,-8,0,1,0,292
"3030",16,3,10,-8,0,1,0,309
"3031",16,4,1,3,0,1,-2,613
"3032",16,4,2,3,0,0,3,331
"3033",16,4,3,3,0,0,4,296
"3034",16,4,4,3,0,0,3,343
"3035",16,4,5,3,0,0,3,308
"3036",16,4,6,3,0,0,3,317
"3037",16,4,7,3,0,0,3,328
"3038",16,4,8,3,0,0,2,309
"3039",16,4,9,3,0,0,2,373
"3040",16,4,10,3,0,0,1,329
"3041",16,5,1,11,-6,1,-5,678
"3042",16,5,2,11,-6,0,10,339
"3043",16,5,3,11,-6,0,11,288
"3044",16,5,4,11,-6,0,11,277
"3045",16,5,5,11,-6,0,11,288
"3046",16,5,6,11,-6,0,12,352
"3047",16,5,7,11,-6,0,12,330
"3048",16,5,8,11,-6,0,11,324
"3049",16,5,9,11,-6,0,12,320
"3050",16,5,10,11,-6,0,12,294
"3051",16,6,1,9,-7,0,11,508
"3052",16,6,2,9,-7,1,-6,284
"3053",16,6,3,9,-7,0,10,324
"3054",16,6,4,9,-7,1,-6,273
"3055",16,6,5,9,-7,0,8,292
"3056",16,6,6,9,-7,0,9,247
"3057",16,6,7,9,-7,0,10,239
"3058",16,6,8,9,-7,0,9,232
"3059",16,6,9,9,-7,0,9,241
"3060",16,6,10,9,-7,0,10,239
"3061",16,7,1,3,-3,0,3,359
"3062",16,7,2,3,-3,1,-1,276
"3063",16,7,3,3,-3,0,0,310
"3064",16,7,4,3,-3,1,-4,243
"3065",16,7,5,3,-3,0,1,247
"3066",16,7,6,3,-3,0,2,204
"3067",16,7,7,3,-3,0,3,199
"3068",16,7,8,3,-3,0,3,207
"3069",16,7,9,3,-3,0,3,202
"3070",16,7,10,3,-3,0,3,198
"3071",16,8,1,-7,-2,0,-8,738
"3072",16,8,2,-7,-2,1,-1,270
"3073",16,8,3,-7,-2,1,-2,282
"3074",16,8,4,-7,-2,0,-7,257
"3075",16,8,5,-7,-2,1,-3,275
"3076",16,8,6,-7,-2,1,-2,231
"3077",16,8,7,-7,-2,1,-2,305
"3078",16,8,8,-7,-2,1,-1,279
"3079",16,8,9,-7,-2,1,-2,347
"3080",16,8,10,-7,-2,1,-1,306
"3081",16,9,1,13,0,0,12,451
"3082",16,9,2,13,0,1,0,327
"3083",16,9,3,13,0,0,13,313
"3084",16,9,4,13,0,0,14,277
"3085",16,9,5,13,0,0,12,286
"3086",16,9,6,13,0,0,12,312
"3087",16,9,7,13,0,0,12,290
"3088",16,9,8,13,0,0,13,297
"3089",16,9,9,13,0,0,14,272
"3090",16,9,10,13,0,0,14,303
"3091",16,10,1,-2,9,0,-1,465
"3092",16,10,2,-2,9,1,12,279
"3093",16,10,3,-2,9,1,10,289
"3094",16,10,4,-2,9,1,9,259
"3095",16,10,5,-2,9,1,10,272
"3096",16,10,6,-2,9,1,9,285
"3097",16,10,7,-2,9,1,8,249
"3098",16,10,8,-2,9,1,8,259
"3099",16,10,9,-2,9,1,9,223
"3100",16,10,10,-2,9,1,8,248
"3101",16,11,1,-8,1,0,-8,1399
"3102",16,11,2,-8,1,1,-1,387
"3103",16,11,3,-8,1,1,1,249
"3104",16,11,4,-8,1,1,1,274
"3105",16,11,5,-8,1,1,2,311
"3106",16,11,6,-8,1,1,3,288
"3107",16,11,7,-8,1,1,-2,296
"3108",16,11,8,-8,1,1,1,302
"3109",16,11,9,-8,1,1,0,327
"3110",16,11,10,-8,1,1,0,332
"3111",16,12,1,7,15,1,15,361
"3112",16,12,2,7,15,0,8,317
"3113",16,12,3,7,15,1,14,357
"3114",16,12,4,7,15,0,7,290
"3115",16,12,5,7,15,1,15,291
"3116",16,12,6,7,15,1,14,254
"3117",16,12,7,7,15,1,14,269
"3118",16,12,8,7,15,1,15,256
"3119",16,12,9,7,15,1,16,241
"3120",16,12,10,7,15,1,17,248
"3121",16,13,1,-8,2,1,4,327
"3122",16,13,2,-8,2,0,-7,337
"3123",16,13,3,-8,2,1,2,294
"3124",16,13,4,-8,2,1,2,208
"3125",16,13,5,-8,2,1,4,245
"3126",16,13,6,-8,2,1,2,252
"3127",16,13,7,-8,2,1,1,280
"3128",16,13,8,-8,2,1,1,277
"3129",16,13,9,-8,2,1,1,264
"3130",16,13,10,-8,2,1,1,237
"3131",16,14,1,0,12,0,0,671
"3132",16,14,2,0,12,1,12,284
"3133",16,14,3,0,12,1,10,234
"3134",16,14,4,0,12,1,11,220
"3135",16,14,5,0,12,1,13,249
"3136",16,14,6,0,12,1,10,232
"3137",16,14,7,0,12,1,12,231
"3138",16,14,8,0,12,1,13,231
"3139",16,14,9,0,12,1,12,242
"3140",16,14,10,0,12,1,12,231
"3141",16,15,1,4,-3,0,3,417
"3142",16,15,2,4,-3,1,-3,257
"3143",16,15,3,4,-3,0,5,330
"3144",16,15,4,4,-3,1,-3,270
"3145",16,15,5,4,-3,0,4,327
"3146",16,15,6,4,-3,0,4,195
"3147",16,15,7,4,-3,0,0,245
"3148",16,15,8,4,-3,0,4,238
"3149",16,15,9,4,-3,0,4,217
"3150",16,15,10,4,-3,0,5,301
"3151",16,16,1,6,-7,0,5,411
"3152",16,16,2,6,-7,1,-7,253
"3153",16,16,3,6,-7,0,7,270
"3154",16,16,4,6,-7,0,6,185
"3155",16,16,5,6,-7,0,6,217
"3156",16,16,6,6,-7,0,7,259
"3157",16,16,7,6,-7,0,6,234
"3158",16,16,8,6,-7,0,5,252
"3159",16,16,9,6,-7,0,7,272
"3160",16,16,10,6,-7,0,7,222
"3161",16,17,1,-3,0,0,-2,570
"3162",16,17,2,-3,0,1,-1,308
"3163",16,17,3,-3,0,0,-4,333
"3164",16,17,4,-3,0,1,0,250
"3165",16,17,5,-3,0,1,1,215
"3166",16,17,6,-3,0,1,1,213
"3167",16,17,7,-3,0,1,1,244
"3168",16,17,8,-3,0,1,0,259
"3169",16,17,9,-3,0,1,0,264
"3170",16,17,10,-3,0,1,0,255
"3171",16,18,1,4,1,1,0,351
"3172",16,18,2,4,1,0,4,275
"3173",16,18,3,4,1,0,5,220
"3174",16,18,4,4,1,0,5,257
"3175",16,18,5,4,1,0,4,247
"3176",16,18,6,4,1,0,3,238
"3177",16,18,7,4,1,0,4,262
"3178",16,18,8,4,1,0,4,259
"3179",16,18,9,4,1,0,3,262
"3180",16,18,10,4,1,0,1,310
"3181",16,19,1,-4,-12,0,-4,343
"3182",16,19,2,-4,-12,1,-13,293
"3183",16,19,3,-4,-12,0,-6,288
"3184",16,19,4,-4,-12,1,-12,263
"3185",16,19,5,-4,-12,0,-4,277
"3186",16,19,6,-4,-12,0,-3,265
"3187",16,19,7,-4,-12,0,-4,224
"3188",16,19,8,-4,-12,0,-3,244
"3189",16,19,9,-4,-12,0,-4,260
"3190",16,19,10,-4,-12,0,-5,260
"3191",16,20,1,-17,5,0,-17,317
"3192",16,20,2,-17,5,1,5,697
"3193",16,20,3,-17,5,1,4,215
"3194",16,20,4,-17,5,1,6,222
"3195",16,20,5,-17,5,1,6,243
"3196",16,20,6,-17,5,1,6,213
"3197",16,20,7,-17,5,1,4,216
"3198",16,20,8,-17,5,1,4,246
"3199",16,20,9,-17,5,1,6,257
"3200",16,20,10,-17,5,1,4,277
"3201",17,1,1,6,8,0,5,1445
"3202",17,1,2,6,8,0,4,556
"3203",17,1,3,6,8,1,7,383
"3204",17,1,4,6,8,1,6,463
"3205",17,1,5,6,8,1,5,431
"3206",17,1,6,6,8,1,8,911
"3207",17,1,7,6,8,1,8,392
"3208",17,1,8,6,8,0,5,558
"3209",17,1,9,6,8,1,8,408
"3210",17,1,10,6,8,1,7,319
"3211",17,2,1,11,-8,1,-9,588
"3212",17,2,2,11,-8,0,11,609
"3213",17,2,3,11,-8,0,11,463
"3214",17,2,4,11,-8,0,12,599
"3215",17,2,5,11,-8,0,10,415
"3216",17,2,6,11,-8,0,12,424
"3217",17,2,7,11,-8,0,10,431
"3218",17,2,8,11,-8,0,8,423
"3219",17,2,9,11,-8,0,10,399
"3220",17,2,10,11,-8,0,10,383
"3221",17,3,1,0,-11,1,-13,517
"3222",17,3,2,0,-11,0,2,431
"3223",17,3,3,0,-11,0,0,415
"3224",17,3,4,0,-11,0,-1,381
"3225",17,3,5,0,-11,1,-12,488
"3226",17,3,6,0,-11,0,1,461
"3227",17,3,7,0,-11,0,1,486
"3228",17,3,8,0,-11,0,1,359
"3229",17,3,9,0,-11,0,0,335
"3230",17,3,10,0,-11,0,0,415
"3231",17,4,1,-6,2,1,2,549
"3232",17,4,2,-6,2,0,-6,473
"3233",17,4,3,-6,2,1,0,398
"3234",17,4,4,-6,2,1,1,335
"3235",17,4,5,-6,2,1,2,311
"3236",17,4,6,-6,2,1,2,360
"3237",17,4,7,-6,2,1,2,335
"3238",17,4,8,-6,2,1,4,368
"3239",17,4,9,-6,2,1,2,759
"3240",17,4,10,-6,2,1,1,304
"3241",17,5,1,0,2,1,1,603
"3242",17,5,2,0,2,0,0,399
"3243",17,5,3,0,2,0,-1,575
"3244",17,5,4,0,2,1,3,328
"3245",17,5,5,0,2,1,2,280
"3246",17,5,6,0,2,1,1,350
"3247",17,5,7,0,2,1,1,304
"3248",17,5,8,0,2,1,2,287
"3249",17,5,9,0,2,1,2,303
"3250",17,5,10,0,2,1,1,383
"3251",17,6,1,-10,-7,1,-8,596
"3252",17,6,2,-10,-7,0,-9,320
"3253",17,6,3,-10,-7,1,-6,319
"3254",17,6,4,-10,-7,1,-7,351
"3255",17,6,5,-10,-7,1,-7,367
"3256",17,6,6,-10,-7,1,-5,335
"3257",17,6,7,-10,-7,1,-6,294
"3258",17,6,8,-10,-7,1,-8,374
"3259",17,6,9,-10,-7,1,-7,359
"3260",17,6,10,-10,-7,1,-7,360
"3261",17,7,1,-14,8,1,8,567
"3262",17,7,2,-14,8,0,-14,336
"3263",17,7,3,-14,8,1,7,287
"3264",17,7,4,-14,8,1,9,342
"3265",17,7,5,-14,8,1,8,599
"3266",17,7,6,-14,8,1,10,320
"3267",17,7,7,-14,8,1,7,367
"3268",17,7,8,-14,8,1,7,359
"3269",17,7,9,-14,8,1,9,327
"3270",17,7,10,-14,8,1,9,369
"3271",17,8,1,2,-7,1,-7,573
"3272",17,8,2,2,-7,0,1,391
"3273",17,8,3,2,-7,0,2,407
"3274",17,8,4,2,-7,0,2,367
"3275",17,8,5,2,-7,0,3,359
"3276",17,8,6,2,-7,0,3,351
"3277",17,8,7,2,-7,0,0,391
"3278",17,8,8,2,-7,0,2,383
"3279",17,8,9,2,-7,0,4,399
"3280",17,8,10,2,-7,0,2,368
"3281",17,9,1,4,10,1,11,437
"3282",17,9,2,4,10,0,5,398
"3283",17,9,3,4,10,1,11,399
"3284",17,9,4,4,10,1,9,367
"3285",17,9,5,4,10,1,9,320
"3286",17,9,6,4,10,1,11,364
"3287",17,9,7,4,10,1,12,327
"3288",17,9,8,4,10,1,9,312
"3289",17,9,9,4,10,0,2,312
"3290",17,9,10,4,10,1,10,358
"3291",17,10,1,1,15,1,15,445
"3292",17,10,2,1,15,0,2,975
"3293",17,10,3,1,15,1,16,367
"3294",17,10,4,1,15,1,15,319
"3295",17,10,5,1,15,1,14,335
"3296",17,10,6,1,15,1,16,335
"3297",17,10,7,1,15,1,14,439
"3298",17,10,8,1,15,1,15,399
"3299",17,10,9,1,15,1,16,310
"3300",17,10,10,1,15,1,15,407
"3301",17,11,1,-5,8,1,8,443
"3302",17,11,2,-5,8,0,-6,375
"3303",17,11,3,-5,8,1,8,375
"3304",17,11,4,-5,8,1,9,384
"3305",17,11,5,-5,8,1,8,447
"3306",17,11,6,-5,8,1,8,366
"3307",17,11,7,-5,8,1,7,360
"3308",17,11,8,-5,8,1,9,391
"3309",17,11,9,-5,8,1,8,368
"3310",17,11,10,-5,8,1,10,392
"3311",17,12,1,17,-11,1,-12,404
"3312",17,12,2,17,-11,0,19,448
"3313",17,12,3,17,-11,0,16,295
"3314",17,12,4,17,-11,0,17,383
"3315",17,12,5,17,-11,0,16,511
"3316",17,12,6,17,-11,0,16,383
"3317",17,12,7,17,-11,0,17,415
"3318",17,12,8,17,-11,0,17,429
"3319",17,12,9,17,-11,0,18,398
"3320",17,12,10,17,-11,0,18,360
"3321",17,13,1,-3,-10,1,-10,446
"3322",17,13,2,-3,-10,0,-2,319
"3323",17,13,3,-3,-10,0,-2,414
"3324",17,13,4,-3,-10,0,-4,334
"3325",17,13,5,-3,-10,0,-3,335
"3326",17,13,6,-3,-10,0,-3,376
"3327",17,13,7,-3,-10,0,-3,375
"3328",17,13,8,-3,-10,0,-2,383
"3329",17,13,9,-3,-10,0,-4,311
"3330",17,13,10,-3,-10,0,-2,383
"3331",17,14,1,-14,6,1,6,470
"3332",17,14,2,-14,6,0,-14,382
"3333",17,14,3,-14,6,1,6,392
"3334",17,14,4,-14,6,1,6,327
"3335",17,14,5,-14,6,1,7,319
"3336",17,14,6,-14,6,1,5,271
"3337",17,14,7,-14,6,1,6,343
"3338",17,14,8,-14,6,1,7,295
"3339",17,14,9,-14,6,1,4,903
"3340",17,14,10,-14,6,1,7,346
"3341",17,15,1,4,1,1,0,429
"3342",17,15,2,4,1,0,6,326
"3343",17,15,3,4,1,0,2,303
"3344",17,15,4,4,1,0,6,327
"3345",17,15,5,4,1,0,2,816
"3346",17,15,6,4,1,0,6,439
"3347",17,15,7,4,1,0,5,375
"3348",17,15,8,4,1,0,5,303
"3349",17,15,9,4,1,0,4,367
"3350",17,15,10,4,1,0,4,415
"3351",17,16,1,10,7,1,7,533
"3352",17,16,2,10,7,0,9,343
"3353",17,16,3,10,7,0,11,344
"3354",17,16,4,10,7,0,10,408
"3355",17,16,5,10,7,0,9,351
"3356",17,16,6,10,7,0,9,401
"3357",17,16,7,10,7,0,10,351
"3358",17,16,8,10,7,0,10,526
"3359",17,16,9,10,7,0,11,431
"3360",17,16,10,10,7,0,11,383
"3361",17,17,1,2,-15,1,-15,491
"3362",17,17,2,2,-15,0,1,496
"3363",17,17,3,2,-15,0,1,293
"3364",17,17,4,2,-15,0,2,392
"3365",17,17,5,2,-15,0,3,541
"3366",17,17,6,2,-15,0,3,383
"3367",17,17,7,2,-15,0,1,383
"3368",17,17,8,2,-15,0,2,431
"3369",17,17,9,2,-15,0,2,415
"3370",17,17,10,2,-15,0,2,407
"3371",17,18,1,-4,-6,1,-6,397
"3372",17,18,2,-4,-6,0,-4,407
"3373",17,18,3,-4,-6,0,-2,415
"3374",17,18,4,-4,-6,0,-4,367
"3375",17,18,5,-4,-6,0,-3,854
"3376",17,18,6,-4,-6,0,-4,335
"3377",17,18,7,-4,-6,0,-3,383
"3378",17,18,8,-4,-6,0,-4,575
"3379",17,18,9,-4,-6,0,-5,334
"3380",17,18,10,-4,-6,0,-4,415
"3381",17,19,1,3,2,1,2,427
"3382",17,19,2,3,2,1,3,535
"3383",17,19,3,3,2,0,1,351
"3384",17,19,4,3,2,0,2,487
"3385",17,19,5,3,2,1,2,319
"3386",17,19,6,3,2,1,2,527
"3387",17,19,7,3,2,1,2,407
"3388",17,19,8,3,2,1,3,471
"3389",17,19,9,3,2,1,2,406
"3390",17,19,10,3,2,1,1,361
"3391",17,20,1,4,2,1,0,1316
"3392",17,20,2,4,2,0,3,615
"3393",17,20,3,4,2,0,5,456
"3394",17,20,4,4,2,0,3,360
"3395",17,20,5,4,2,0,5,463
"3396",17,20,6,4,2,0,2,478
"3397",17,20,7,4,2,0,3,775
"3398",17,20,8,4,2,0,6,423
"3399",17,20,9,4,2,0,5,632
"3400",17,20,10,4,2,0,4,511
"3401",18,1,1,-7,8,0,-6,1215
"3402",18,1,2,-7,8,1,9,763
"3403",18,1,3,-7,8,1,7,591
"3404",18,1,4,-7,8,0,-8,832
"3405",18,1,5,-7,8,1,8,537
"3406",18,1,6,-7,8,1,8,502
"3407",18,1,7,-7,8,1,8,536
"3408",18,1,8,-7,8,1,6,472
"3409",18,1,9,-7,8,1,9,479
"3410",18,1,10,-7,8,1,8,528
"3411",18,2,1,-6,3,1,1,1169
"3412",18,2,2,-6,3,0,-7,528
"3413",18,2,3,-6,3,0,-6,486
"3414",18,2,4,-6,3,1,5,519
"3415",18,2,5,-6,3,1,4,447
"3416",18,2,6,-6,3,1,4,471
"3417",18,2,7,-6,3,1,2,378
"3418",18,2,8,-6,3,0,-7,470
"3419",18,2,9,-6,3,1,1,383
"3420",18,2,10,-6,3,1,3,392
"3421",18,3,1,4,-6,1,-6,225
"3422",18,3,2,4,-6,0,4,432
"3423",18,3,3,4,-6,0,4,454
"3424",18,3,4,4,-6,0,4,413
"3425",18,3,5,4,-6,0,3,463
"3426",18,3,6,4,-6,0,4,603
"3427",18,3,7,4,-6,0,3,400
"3428",18,3,8,4,-6,0,2,431
"3429",18,3,9,4,-6,0,4,432
"3430",18,3,10,4,-6,0,2,543
"3431",18,4,1,-7,13,1,13,992
"3432",18,4,2,-7,13,0,-7,488
"3433",18,4,3,-7,13,1,12,432
"3434",18,4,4,-7,13,1,12,383
"3435",18,4,5,-7,13,1,12,416
"3436",18,4,6,-7,13,1,13,448
"3437",18,4,7,-7,13,1,12,631
"3438",18,4,8,-7,13,1,13,1592
"3439",18,4,9,-7,13,1,14,646
"3440",18,4,10,-7,13,1,13,487
"3441",18,5,1,9,0,0,8,1000
"3442",18,5,2,9,0,1,1,472
"3443",18,5,3,9,0,1,-1,439
"3444",18,5,4,9,0,0,9,454
"3445",18,5,5,9,0,0,9,358
"3446",18,5,6,9,0,0,8,438
"3447",18,5,7,9,0,0,9,432
"3448",18,5,8,9,0,0,9,416
"3449",18,5,9,9,0,0,10,406
"3450",18,5,10,9,0,0,8,413
"3451",18,6,1,8,-3,0,8,984
"3452",18,6,2,8,-3,1,-3,549
"3453",18,6,3,8,-3,0,9,473
"3454",18,6,4,8,-3,0,8,393
"3455",18,6,5,8,-3,0,7,400
"3456",18,6,6,8,-3,0,10,470
"3457",18,6,7,8,-3,0,6,494
"3458",18,6,8,8,-3,0,8,438
"3459",18,6,9,8,-3,0,8,462
"3460",18,6,10,8,-3,0,8,496
"3461",18,7,1,1,10,1,9,713
"3462",18,7,2,1,10,0,2,503
"3463",18,7,3,1,10,0,1,390
"3464",18,7,4,1,10,1,9,776
"3465",18,7,5,1,10,1,11,416
"3466",18,7,6,1,10,1,10,440
"3467",18,7,7,1,10,1,10,374
"3468",18,7,8,1,10,1,12,404
"3469",18,7,9,1,10,1,10,392
"3470",18,7,10,1,10,1,9,374
"3471",18,8,1,-4,-5,1,-7,759
"3472",18,8,2,-4,-5,0,-4,543
"3473",18,8,3,-4,-5,1,-4,511
"3474",18,8,4,-4,-5,0,-4,422
"3475",18,8,5,-4,-5,0,-5,471
"3476",18,8,6,-4,-5,1,-6,463
"3477",18,8,7,-4,-5,1,-6,462
"3478",18,8,8,-4,-5,0,-5,448
"3479",18,8,9,-4,-5,0,-3,455
"3480",18,8,10,-4,-5,0,-4,438
"3481",18,9,1,-2,3,0,-1,951
"3482",18,9,2,-2,3,1,3,592
"3483",18,9,3,-2,3,1,2,384
"3484",18,9,4,-2,3,1,2,408
"3485",18,9,5,-2,3,1,3,398
"3486",18,9,6,-2,3,1,3,406
"3487",18,9,7,-2,3,1,2,432
"3488",18,9,8,-2,3,1,3,416
"3489",18,9,9,-2,3,1,1,391
"3490",18,9,10,-2,3,1,2,397
"3491",18,10,1,5,8,1,7,872
"3492",18,10,2,5,8,1,7,494
"3493",18,10,3,5,8,0,5,463
"3494",18,10,4,5,8,0,4,407
"3495",18,10,5,5,8,0,5,438
"3496",18,10,6,5,8,1,7,485
"3497",18,10,7,5,8,1,8,406
"3498",18,10,8,5,8,1,10,397
"3499",18,10,9,5,8,1,10,400
"3500",18,10,10,5,8,1,9,407
"3501",18,11,1,-3,10,1,12,688
"3502",18,11,2,-3,10,0,-3,527
"3503",18,11,3,-3,10,1,9,496
"3504",18,11,4,-3,10,1,10,374
"3505",18,11,5,-3,10,1,10,399
"3506",18,11,6,-3,10,1,9,424
"3507",18,11,7,-3,10,1,10,383
"3508",18,11,8,-3,10,1,10,407
"3509",18,11,9,-3,10,1,9,392
"3510",18,11,10,-3,10,1,10,383
"3511",18,12,1,2,-5,1,-7,800
"3512",18,12,2,2,-5,0,2,520
"3513",18,12,3,2,-5,0,2,391
"3514",18,12,4,2,-5,0,2,416
"3515",18,12,5,2,-5,0,4,423
"3516",18,12,6,2,-5,0,2,425
"3517",18,12,7,2,-5,0,1,419
"3518",18,12,8,2,-5,0,0,430
"3519",18,12,9,2,-5,0,0,407
"3520",18,12,10,2,-5,1,-5,575
"3521",18,13,1,6,8,1,7,832
"3522",18,13,2,6,8,0,6,448
"3523",18,13,3,6,8,0,5,479
"3524",18,13,4,6,8,1,8,415
"3525",18,13,5,6,8,1,8,325
"3526",18,13,6,6,8,1,8,344
"3527",18,13,7,6,8,1,9,368
"3528",18,13,8,6,8,0,4,574
"3529",18,13,9,6,8,1,8,414
"3530",18,13,10,6,8,1,8,360
"3531",18,14,1,-11,-14,1,-15,601
"3532",18,14,2,-11,-14,0,-11,521
"3533",18,14,3,-11,-14,0,-11,446
"3534",18,14,4,-11,-14,1,-14,392
"3535",18,14,5,-11,-14,0,-11,414
"3536",18,14,6,-11,-14,0,-11,359
"3537",18,14,7,-11,-14,0,-12,413
"3538",18,14,8,-11,-14,1,-14,431
"3539",18,14,9,-11,-14,0,-11,376
"3540",18,14,10,-11,-14,0,-12,464
"3541",18,15,1,-5,-7,1,-6,664
"3542",18,15,2,-5,-7,0,-5,454
"3543",18,15,3,-5,-7,1,-8,663
"3544",18,15,4,-5,-7,0,-5,462
"3545",18,15,5,-5,-7,0,-5,374
"3546",18,15,6,-5,-7,0,-5,366
"3547",18,15,7,-5,-7,0,-4,440
"3548",18,15,8,-5,-7,0,-5,417
"3549",18,15,9,-5,-7,0,-3,416
"3550",18,15,10,-5,-7,0,-5,422
"3551",18,16,1,2,1,1,-1,791
"3552",18,16,2,2,1,0,2,494
"3553",18,16,3,2,1,0,3,383
"3554",18,16,4,2,1,0,1,351
"3555",18,16,5,2,1,0,4,352
"3556",18,16,6,2,1,0,2,357
"3557",18,16,7,2,1,0,2,855
"3558",18,16,8,2,1,0,2,383
"3559",18,16,9,2,1,0,0,381
"3560",18,16,10,2,1,0,3,438
"3561",18,17,1,-1,12,1,12,840
"3562",18,17,2,-1,12,1,13,407
"3563",18,17,3,-1,12,1,13,318
"3564",18,17,4,-1,12,0,-1,447
"3565",18,17,5,-1,12,1,12,447
"3566",18,17,6,-1,12,1,14,379
"3567",18,17,7,-1,12,1,12,391
"3568",18,17,8,-1,12,1,13,374
"3569",18,17,9,-1,12,1,13,382
"3570",18,17,10,-1,12,1,11,432
"3571",18,18,1,-2,6,1,6,632
"3572",18,18,2,-2,6,0,-3,520
"3573",18,18,3,-2,6,1,5,502
"3574",18,18,4,-2,6,1,7,343
"3575",18,18,5,-2,6,1,6,374
"3576",18,18,6,-2,6,1,5,390
"3577",18,18,7,-2,6,1,7,400
"3578",18,18,8,-2,6,1,5,439
"3579",18,18,9,-2,6,1,7,496
"3580",18,18,10,-2,6,1,6,464
"3581",18,19,1,7,-1,0,6,952
"3582",18,19,2,7,-1,1,-2,471
"3583",18,19,3,7,-1,0,8,446
"3584",18,19,4,7,-1,0,7,389
"3585",18,19,5,7,-1,0,5,440
"3586",18,19,6,7,-1,0,5,502
"3587",18,19,7,7,-1,0,6,496
"3588",18,19,8,7,-1,0,6,399
"3589",18,19,9,7,-1,0,6,551
"3590",18,19,10,7,-1,0,7,400
"3591",18,20,1,14,6,1,6,832
"3592",18,20,2,14,6,0,14,566
"3593",18,20,3,14,6,0,13,431
"3594",18,20,4,14,6,0,15,400
"3595",18,20,5,14,6,0,14,374
